gesture,rep,t_ms,gx,gy,gz,ax,ay,az
up,1,1,15.500,-5.562,-0.250,-0.019,0.193,-1.010
up,1,21,13.938,-8.750,-2.500,-0.031,0.179,-1.004
up,1,40,3.688,-1.062,-2.750,-0.040,0.170,-1.018
up,1,60,-0.562,3.625,-1.937,-0.029,0.175,-1.019
up,1,80,0.687,0.312,-0.500,-0.020,0.176,-1.008
up,1,100,-6.250,1.125,1.000,-0.014,0.181,-1.002
up,1,120,-17.125,-0.562,1.875,0.008,0.192,-0.999
up,1,140,-26.937,-9.625,4.062,0.058,0.242,-1.033
up,1,160,-45.188,-16.187,13.563,0.031,0.291,-1.165
up,1,180,-69.938,-17.937,31.562,-0.083,0.353,-1.349
up,1,200,-77.438,-41.500,28.875,-0.218,0.390,-1.574
up,1,220,-64.063,-69.625,9.688,-0.369,0.444,-1.894
up,1,240,-30.500,-57.563,-5.562,-0.489,0.505,-2.157
up,1,260,8.563,-26.125,-16.250,-0.479,0.576,-2.152
up,1,280,38.063,-22.437,-20.250,-0.452,0.625,-2.083
up,1,300,67.000,-18.062,-34.500,-0.368,0.600,-2.022
up,1,320,102.000,-12.063,-46.500,-0.227,0.594,-1.871
up,1,340,109.125,15.375,-37.813,-0.101,0.547,-1.684
up,1,360,101.563,20.750,-18.000,0.042,0.463,-1.431
up,1,380,79.688,38.313,12.750,0.094,0.374,-1.157
up,1,400,53.625,34.125,26.625,0.035,0.190,-1.011
up,1,420,49.500,12.188,7.187,0.047,0.100,-0.909
up,1,440,60.625,-7.500,-10.625,0.109,0.152,-0.790
up,1,460,45.563,18.500,7.625,0.122,0.121,-0.666
up,1,480,19.437,52.438,45.125,0.063,-0.025,-0.516
up,1,500,30.500,51.188,50.625,-0.031,-0.091,-0.334
up,1,520,42.063,56.188,15.000,-0.075,-0.097,-0.180
up,1,540,36.500,61.125,-33.688,-0.084,-0.086,-0.062
up,1,560,35.938,40.063,-58.063,-0.009,-0.041,-0.029
up,1,580,21.187,43.125,-58.438,0.091,-0.018,-0.076
up,1,600,1.687,63.375,-54.188,0.080,-0.122,-0.163
up,1,620,15.063,41.000,-66.938,0.059,-0.139,-0.172
up,1,640,21.750,7.062,-85.625,0.078,-0.129,-0.241
up,1,660,7.750,-10.375,-89.563,0.098,-0.153,-0.384
up,1,680,-5.750,-19.625,-78.063,0.075,-0.178,-0.531
up,1,700,-10.813,-6.875,-70.563,0.053,-0.167,-0.613
up,1,720,-9.000,-1.062,-68.000,0.035,-0.082,-0.579
up,1,740,-10.438,-7.625,-65.438,0.073,-0.065,-0.606
up,1,760,-25.250,10.563,-50.625,0.080,-0.059,-0.647
up,1,780,-44.188,26.500,-28.500,0.108,-0.001,-0.578
up,1,800,-65.750,35.000,-15.188,0.110,0.049,-0.517
up,1,820,-63.875,25.500,-15.813,0.088,0.056,-0.467
up,1,840,-49.125,-1.062,-22.937,0.075,0.072,-0.451
up,1,860,-50.125,-14.500,-30.812,0.062,0.104,-0.546
up,1,880,-74.750,-4.375,-8.625,0.056,0.110,-0.574
up,1,900,-90.625,-17.187,36.063,0.116,0.148,-0.454
up,1,920,-107.875,-20.500,76.938,0.128,0.163,-0.378
up,1,940,-127.625,4.375,97.625,0.052,0.092,-0.364
up,1,960,-120.688,5.125,82.000,-0.002,-0.055,-0.341
up,1,980,-69.438,-62.000,41.875,0.019,-0.144,-0.376
up,1,1000,-22.187,-97.438,18.375,0.100,-0.146,-0.470
up,1,1020,-7.937,-87.125,-18.750,-0.002,0.056,-0.607
up,1,1040,-10.938,-96.125,-45.875,0.047,0.140,-0.812
up,1,1060,-30.312,-113.938,-28.875,0.035,0.345,-1.039
up,1,1080,-136.187,-56.438,-32.313,-0.422,0.721,-1.522
up,1,1100,-177.125,-64.375,-62.813,-0.598,0.878,-2.042
up,1,1120,-164.437,-52.000,-3.438,-0.407,1.162,-2.375
up,1,1140,-161.125,5.375,21.875,-0.365,1.254,-2.445
up,1,1160,-88.688,44.000,21.812,-0.300,1.120,-2.307
up,1,1180,32.875,67.438,-10.750,-0.292,0.920,-1.975
up,1,1200,103.313,65.625,-18.312,-0.225,0.979,-1.550
up,1,1220,90.313,57.688,-10.875,-0.093,1.040,-1.225
up,1,1240,46.375,38.313,8.625,-0.046,0.951,-1.078
up,1,1260,34.875,14.125,28.625,-0.062,0.750,-1.067
up,1,1280,64.625,17.875,17.375,-0.019,0.583,-1.129
up,1,1300,82.625,27.125,16.125,0.043,0.521,-1.019
up,1,1320,74.688,27.812,34.000,0.020,0.477,-0.879
up,1,1340,57.313,12.563,47.875,-0.021,0.383,-0.824
up,1,1360,46.875,-18.375,57.500,-0.001,0.294,-0.824
up,1,1380,39.938,3.313,25.312,-0.076,0.139,-0.993
up,1,1400,40.000,33.875,-9.313,-0.076,0.124,-1.035
up,1,1420,53.188,16.437,-10.813,-0.002,0.226,-0.940
up,1,1440,32.375,19.812,0.687,0.022,0.243,-0.874
up,1,1460,-4.375,24.125,10.750,0.005,0.212,-0.857
up,1,1480,-6.062,-3.625,17.000,0.071,0.229,-0.874
up,1,1500,2.375,-18.187,15.563,0.092,0.214,-0.963
up,1,1520,1.812,-2.125,0.125,0.053,0.218,-1.006
up,1,1540,4.125,-11.188,2.000,0.069,0.276,-0.979
up,1,1560,5.750,-29.062,17.562,0.052,0.330,-1.017
up,1,1580,11.688,-34.563,38.625,0.047,0.310,-1.090
up,1,1600,9.813,1.500,21.437,-0.037,0.237,-1.117
up,1,1620,11.563,2.000,14.063,-0.065,0.245,-1.054
up,1,1640,21.875,-10.063,6.562,-0.078,0.227,-1.047
up,1,1660,12.000,-8.500,-5.875,-0.068,0.221,-1.015
up,1,1680,-3.688,-6.937,-11.750,-0.048,0.218,-1.001
up,1,1700,-11.875,-2.250,-18.500,-0.060,0.216,-1.003
up,1,1720,-20.750,-1.812,-24.375,-0.086,0.246,-1.003
up,1,1740,-18.187,-15.750,-28.437,-0.070,0.283,-1.021
up,1,1760,-0.812,-27.250,-16.187,0.000,0.318,-1.050
up,1,1780,-2.063,-13.563,-8.625,-0.019,0.316,-1.054
up,1,1800,-12.125,2.688,-4.875,-0.012,0.304,-1.033
up,1,1820,-5.437,-2.313,2.625,0.007,0.317,-1.052
up,1,1840,5.250,3.000,0.750,-0.058,0.302,-1.059
up,1,1860,19.062,-3.188,-4.562,-0.080,0.346,-1.048
up,1,1880,48.625,-22.125,-6.500,-0.026,0.347,-1.048
up,1,1900,47.000,-7.562,-6.000,-0.064,0.343,-0.999
up,1,1920,29.687,1.062,6.437,-0.080,0.288,-0.942
up,1,1940,21.562,5.312,4.812,-0.102,0.192,-0.923
up,1,1960,19.062,-4.437,-0.625,-0.143,0.222,-0.926
up,1,1980,33.938,-24.250,10.250,-0.082,0.182,-0.991
up,1,2000,30.625,0.375,8.125,-0.084,0.132,-1.012
up,2,1,12.438,-38.125,-2.063,-0.057,0.298,-1.009
up,2,20,9.688,-35.188,-11.563,-0.076,0.282,-1.001
up,2,40,6.625,-33.500,-12.688,-0.049,0.295,-0.996
up,2,60,0.875,-27.312,-7.562,0.001,0.298,-1.001
up,2,80,-4.562,-15.875,1.062,0.028,0.307,-0.999
up,2,100,-7.625,-12.500,8.688,0.020,0.302,-1.007
up,2,120,-11.688,-17.250,12.438,0.015,0.319,-1.099
up,2,140,-15.563,-14.688,13.375,-0.004,0.335,-1.227
up,2,160,-22.687,-19.937,17.437,-0.028,0.386,-1.328
up,2,180,-26.125,-39.750,21.500,-0.077,0.485,-1.498
up,2,200,-12.000,-49.063,22.312,-0.125,0.544,-1.687
up,2,220,13.875,-51.250,14.688,-0.152,0.548,-1.771
up,2,240,39.625,-58.375,-0.625,-0.228,0.514,-1.778
up,2,260,61.000,-54.250,-30.437,-0.310,0.478,-1.760
up,2,280,65.500,-45.813,-48.000,-0.316,0.422,-1.686
up,2,300,55.188,-20.687,-48.813,-0.231,0.325,-1.625
up,2,320,54.688,27.437,-45.563,-0.165,0.303,-1.513
up,2,340,82.188,34.313,-35.563,-0.131,0.371,-1.484
up,2,360,128.937,23.000,-15.375,-0.094,0.254,-1.545
up,2,380,163.750,78.375,12.313,-0.048,0.146,-1.301
up,2,400,189.750,88.813,29.937,-0.099,0.148,-0.918
up,2,420,180.437,58.063,35.500,-0.058,0.025,-0.685
up,2,440,148.125,52.750,38.000,-0.071,-0.056,-0.473
up,2,460,97.250,50.750,27.312,-0.050,-0.036,-0.312
up,2,480,48.500,58.250,16.000,0.003,-0.062,-0.307
up,2,500,22.375,49.500,24.750,0.014,-0.113,-0.349
up,2,520,6.625,29.562,39.938,0.003,-0.198,-0.437
up,2,540,11.250,38.375,8.063,-0.032,-0.151,-0.469
up,2,560,23.062,41.375,-41.250,-0.012,-0.091,-0.438
up,2,580,31.500,24.687,-68.250,0.031,-0.070,-0.405
up,2,600,41.438,2.313,-65.625,0.100,-0.009,-0.383
up,2,620,34.063,-6.375,-64.313,0.141,-0.034,-0.391
up,2,640,19.250,0.312,-65.188,0.187,-0.026,-0.379
up,2,660,3.875,3.313,-60.250,0.250,-0.030,-0.370
up,2,680,-15.625,-4.000,-38.438,0.232,-0.077,-0.390
up,2,700,-33.063,-13.688,-14.313,0.134,-0.100,-0.446
up,2,720,-47.938,-16.062,-12.063,0.038,-0.128,-0.541
up,2,740,-43.875,-15.563,-25.312,0.006,-0.123,-0.593
up,2,760,-27.562,-8.438,-40.938,0.021,-0.079,-0.595
up,2,780,-11.063,-2.688,-53.313,0.070,-0.006,-0.536
up,2,800,-0.750,-7.062,-54.875,0.044,0.101,-0.492
up,2,820,-15.063,-18.187,-24.375,0.051,0.116,-0.494
up,2,840,-29.125,-7.312,24.562,0.071,0.088,-0.501
up,2,860,-45.938,4.250,55.438,0.019,0.061,-0.505
up,2,880,-64.375,-3.000,66.750,-0.038,0.052,-0.564
up,2,900,-84.375,-5.875,70.625,0.024,-0.036,-0.677
up,2,920,-96.438,10.000,70.500,0.104,-0.211,-0.781
up,2,940,-94.125,17.875,57.250,0.039,-0.285,-0.854
up,2,960,-73.188,0.437,31.375,0.018,-0.161,-0.887
up,2,980,-41.750,-50.750,3.688,0.095,-0.015,-1.008
up,2,1000,-47.250,-35.688,12.500,0.264,-0.118,-1.103
up,2,1020,-71.813,-28.312,7.312,0.287,-0.142,-1.050
up,2,1040,-92.063,-48.438,0.187,0.175,0.005,-1.124
up,2,1060,-93.125,-29.750,6.000,0.197,0.044,-1.181
up,2,1080,-62.438,5.437,25.250,0.127,0.032,-1.104
up,2,1100,-26.062,5.000,35.875,0.006,0.047,-0.942
up,2,1120,-30.812,-4.562,13.563,-0.052,0.090,-0.768
up,2,1140,-68.188,-11.688,3.563,-0.114,0.219,-0.780
up,2,1160,-113.250,-11.750,-47.875,-0.335,0.410,-1.163
up,2,1180,-131.687,-13.938,-91.250,-0.326,0.609,-1.539
up,2,1200,-95.563,-11.250,-52.750,-0.058,0.730,-1.795
up,2,1220,-71.063,26.875,-10.438,-0.047,0.706,-1.788
up,2,1240,-91.438,72.813,13.063,-0.181,0.640,-1.690
up,2,1260,-80.688,57.188,6.875,-0.040,0.474,-1.558
up,2,1280,-46.938,7.000,-8.063,-0.066,0.420,-1.516
up,2,1300,-23.375,-31.687,-32.813,-0.170,0.505,-1.530
up,2,1320,-4.187,-42.813,-51.500,-0.208,0.618,-1.521
up,2,1340,15.750,-39.938,-49.313,-0.103,0.637,-1.454
up,2,1360,29.812,-26.437,-26.875,-0.020,0.663,-1.341
up,2,1380,29.812,8.438,-19.437,0.036,0.637,-1.191
up,2,1400,33.375,25.187,-1.062,0.093,0.586,-1.042
up,2,1420,33.500,28.062,11.438,0.091,0.534,-0.933
up,2,1440,29.000,31.250,18.125,0.070,0.459,-0.856
up,2,1460,24.937,29.437,16.375,0.026,0.412,-0.812
up,2,1480,19.500,20.750,13.125,0.019,0.366,-0.798
up,2,1500,11.563,16.875,9.938,0.028,0.326,-0.808
up,2,1520,2.375,14.875,7.312,0.020,0.308,-0.834
up,2,1540,-3.875,16.875,2.938,-0.012,0.292,-0.892
up,2,1560,-7.125,19.000,0.125,-0.022,0.278,-0.914
up,2,1580,-4.875,14.125,-4.312,-0.032,0.286,-0.936
up,2,1600,1.062,5.312,-10.188,-0.010,0.300,-0.958
up,2,1620,-2.375,4.500,-14.313,0.011,0.311,-0.976
up,2,1640,-7.187,6.437,-15.438,0.036,0.316,-0.991
up,2,1660,-6.500,5.687,-15.000,0.063,0.335,-1.002
up,2,1680,-3.438,4.937,-14.938,0.065,0.363,-1.002
up,2,1700,-1.437,1.250,-17.375,0.083,0.389,-1.001
up,2,1720,0.187,-1.812,-17.812,0.109,0.395,-1.003
up,2,1740,1.937,-1.937,-14.438,0.117,0.416,-0.980
up,2,1760,1.562,-6.062,-8.063,0.102,0.442,-0.975
up,2,1780,-1.375,-5.187,-0.750,0.097,0.438,-0.997
up,2,1800,-0.500,1.437,6.687,0.085,0.426,-1.002
up,2,1820,0.687,3.375,11.375,0.067,0.402,-0.960
up,2,1840,-1.250,-0.562,12.500,0.035,0.389,-0.950
up,2,1860,-4.500,-2.375,11.813,0.011,0.379,-0.980
up,2,1880,-3.813,-1.187,11.000,0.012,0.358,-0.994
up,2,1900,-1.500,0.500,9.250,0.008,0.353,-0.983
up,2,1920,1.812,0.562,6.125,0.011,0.345,-0.990
up,2,1940,3.188,2.500,3.438,0.012,0.345,-0.966
up,2,1960,2.063,0.000,1.187,0.014,0.346,-0.956
up,2,1980,0.250,-0.750,0.125,0.021,0.349,-0.971
up,2,2000,-1.250,1.312,-0.312,0.029,0.345,-0.984
up,3,1,-1.375,-0.500,1.812,0.011,0.361,-0.997
up,3,21,-1.062,1.687,1.375,0.013,0.354,-1.005
up,3,40,-0.187,2.063,0.312,0.015,0.352,-0.995
up,3,60,0.187,0.625,-0.375,0.017,0.354,-0.986
up,3,80,0.062,0.812,-0.937,0.021,0.359,-0.986
up,3,100,-0.812,0.375,-1.500,0.023,0.354,-0.980
up,3,120,0.000,-1.875,-2.500,0.034,0.346,-0.986
up,3,140,2.250,-4.625,-3.125,0.042,0.349,-0.977
up,3,160,1.375,-9.625,-4.500,0.056,0.338,-0.977
up,3,180,2.750,-15.750,-8.125,0.086,0.322,-0.995
up,3,200,6.625,-32.563,-8.250,0.112,0.322,-0.970
up,3,220,-3.188,-56.125,-6.312,0.056,0.369,-1.042
up,3,240,-18.875,-73.000,1.125,-0.070,0.470,-1.236
up,3,260,-26.125,-78.500,12.563,-0.295,0.551,-1.527
up,3,280,-23.125,-61.438,14.813,-0.482,0.567,-1.789
up,3,300,6.500,-46.063,0.562,-0.556,0.583,-1.891
up,3,320,40.938,-39.000,-21.250,-0.560,0.584,-1.857
up,3,340,68.813,-40.250,-47.938,-0.501,0.591,-1.789
up,3,360,78.125,-30.437,-61.938,-0.409,0.578,-1.729
up,3,380,76.000,-6.937,-58.438,-0.277,0.550,-1.605
up,3,400,70.500,14.563,-39.750,-0.144,0.501,-1.481
up,3,420,59.938,33.688,-13.188,-0.099,0.432,-1.358
up,3,440,40.125,36.938,3.625,-0.042,0.333,-1.280
up,3,460,21.500,27.875,16.937,0.023,0.235,-1.226
up,3,480,2.000,30.687,28.125,0.060,0.166,-1.125
up,3,500,-15.000,32.688,28.562,-0.022,0.210,-1.003
up,3,520,-8.813,17.000,37.313,0.006,0.272,-0.967
up,3,540,-8.313,47.063,72.938,0.076,0.191,-0.942
up,3,560,-15.250,121.313,110.188,0.003,0.062,-0.762
up,3,580,17.812,122.875,82.688,-0.102,0.057,-0.464
up,3,600,46.875,59.313,25.187,-0.054,0.099,-0.329
up,3,620,62.625,31.437,-24.062,0.060,0.168,-0.314
up,3,640,69.938,25.625,-58.938,0.085,0.267,-0.260
up,3,660,54.188,12.250,-68.000,0.091,0.274,-0.324
up,3,680,33.438,23.062,-41.500,0.133,0.233,-0.480
up,3,700,38.313,54.188,-18.687,0.140,0.117,-0.492
up,3,720,47.438,36.313,-23.687,0.105,0.043,-0.415
up,3,740,34.563,20.000,-33.000,0.135,-0.040,-0.451
up,3,760,19.875,14.750,-35.688,0.132,-0.040,-0.489
up,3,780,-7.125,15.500,-31.125,-0.003,-0.122,-0.666
up,3,800,-5.125,6.937,-47.875,-0.045,-0.143,-0.739
up,3,820,9.063,-24.000,-65.625,-0.010,-0.077,-0.773
up,3,840,5.250,-24.062,-66.500,0.004,-0.032,-0.855
up,3,860,-0.750,-11.875,-54.500,0.001,-0.014,-0.875
up,3,880,-1.812,-2.688,-42.813,0.053,0.027,-0.807
up,3,900,-2.250,-1.000,-34.625,0.118,0.067,-0.716
up,3,920,-9.688,-2.250,-25.250,0.215,0.043,-0.635
up,3,940,-17.250,-2.938,-19.000,0.223,0.074,-0.559
up,3,960,-35.688,-7.125,-4.437,0.136,0.104,-0.611
up,3,980,-51.813,2.188,10.563,0.106,0.035,-0.641
up,3,1000,-43.688,3.500,4.187,0.067,0.088,-0.558
up,3,1020,-34.500,-28.562,3.063,-0.046,0.231,-0.603
up,3,1040,-61.438,-40.500,39.750,-0.063,0.129,-0.771
up,3,1060,-69.000,1.437,55.313,-0.043,0.071,-0.810
up,3,1080,-28.750,16.125,15.188,-0.061,0.171,-0.675
up,3,1100,15.250,-26.875,-24.750,0.015,0.273,-0.589
up,3,1120,24.187,-64.938,-26.437,0.125,0.317,-0.611
up,3,1140,5.375,-46.375,-6.375,0.099,0.440,-0.712
up,3,1160,-36.188,6.625,24.125,0.068,0.379,-0.843
up,3,1180,-37.188,23.125,46.688,0.175,0.131,-0.843
up,3,1200,-2.750,-3.125,38.688,0.114,0.049,-0.657
up,3,1220,4.187,-32.375,-3.625,-0.065,0.212,-0.644
up,3,1240,-6.687,-55.313,-35.063,0.038,0.274,-0.759
up,3,1260,-20.312,-42.938,-7.312,0.208,0.248,-0.849
up,3,1280,-55.313,-15.688,23.500,0.168,0.217,-0.875
up,3,1300,-103.313,-4.312,32.250,0.015,0.265,-0.903
up,3,1320,-127.813,-30.375,30.500,-0.109,0.366,-1.103
up,3,1340,-127.563,-37.188,3.000,-0.100,0.436,-1.345
up,3,1360,-101.563,-47.625,-19.250,-0.084,0.564,-1.651
up,3,1380,-70.500,-23.375,16.437,-0.004,0.574,-1.800
up,3,1400,-64.063,29.812,52.000,-0.149,0.616,-1.667
up,3,1420,-83.000,28.437,45.313,-0.380,0.705,-1.669
up,3,1440,-60.563,23.750,4.687,-0.342,0.625,-1.776
up,3,1460,-0.875,15.500,-22.750,-0.111,0.674,-1.564
up,3,1480,15.438,-3.625,-19.312,-0.009,0.745,-1.344
up,3,1500,-7.625,1.312,0.375,-0.075,0.771,-1.265
up,3,1520,-21.812,0.875,5.250,-0.142,0.743,-1.322
up,3,1540,-1.750,1.437,-10.500,-0.147,0.675,-1.361
up,3,1560,37.563,-0.687,-23.750,-0.083,0.638,-1.282
up,3,1580,51.625,3.750,-16.000,-0.008,0.657,-1.122
up,3,1600,41.375,16.000,2.250,0.013,0.628,-1.004
up,3,1620,26.875,22.000,15.813,-0.005,0.562,-0.934
up,3,1640,19.875,20.625,18.937,-0.038,0.480,-0.933
up,3,1660,32.250,15.188,7.750,-0.040,0.404,-0.916
up,3,1680,49.688,-8.125,-7.062,-0.025,0.374,-0.871
up,3,1700,47.750,-23.000,-10.438,-0.020,0.384,-0.860
up,3,1720,24.500,-14.125,-4.562,-0.040,0.389,-0.878
up,3,1740,4.625,0.687,-1.125,-0.056,0.354,-0.893
up,3,1760,0.000,1.500,-4.312,-0.071,0.325,-0.915
up,3,1780,0.000,2.250,-9.500,-0.079,0.347,-0.953
up,3,1800,1.250,5.000,-9.438,-0.062,0.361,-0.958
up,3,1820,0.312,8.250,-9.750,-0.048,0.365,-0.936
up,3,1840,-0.937,6.187,-10.000,-0.035,0.364,-0.920
up,3,1860,-6.062,4.062,-8.938,-0.032,0.375,-0.926
up,3,1880,-9.500,5.000,-8.250,-0.019,0.380,-0.941
up,3,1900,-11.000,4.375,-7.875,-0.022,0.388,-0.947
up,3,1920,-5.500,1.812,-9.000,0.005,0.396,-0.971
up,3,1940,-0.687,-0.750,-5.250,0.004,0.416,-0.961
up,3,1960,-2.750,-0.937,-3.875,-0.003,0.418,-0.960
up,3,1980,-3.063,-0.687,-3.188,-0.005,0.414,-0.965
up,3,2000,-5.500,-1.625,-3.938,-0.025,0.425,-0.970
up,4,1,-0.187,0.812,-0.187,-0.058,0.365,-0.975
up,4,21,-0.062,0.062,-0.312,-0.057,0.364,-0.977
up,4,40,1.312,-0.562,-1.000,-0.059,0.361,-0.988
up,4,60,2.250,-0.875,-2.063,-0.066,0.365,-0.986
up,4,80,1.562,-1.562,-2.625,-0.065,0.374,-0.991
up,4,100,0.187,0.187,-1.375,-0.059,0.379,-0.999
up,4,120,1.000,1.562,-0.250,-0.059,0.376,-1.004
up,4,140,3.063,0.250,0.187,-0.059,0.373,-1.003
up,4,160,3.188,-2.313,0.375,-0.062,0.373,-0.994
up,4,180,1.000,-5.125,0.500,-0.060,0.383,-0.995
up,4,200,0.562,-12.438,0.812,-0.087,0.389,-1.042
up,4,220,10.063,-25.937,-5.687,-0.165,0.399,-1.135
up,4,240,18.750,-45.438,-16.312,-0.245,0.455,-1.275
up,4,260,22.750,-54.938,-25.500,-0.290,0.494,-1.425
up,4,280,28.062,-51.500,-28.812,-0.348,0.511,-1.573
up,4,300,35.188,-47.125,-27.187,-0.418,0.500,-1.681
up,4,320,41.688,-36.750,-23.937,-0.449,0.469,-1.713
up,4,340,42.813,-26.750,-18.812,-0.442,0.417,-1.691
up,4,360,34.938,-9.750,-14.188,-0.440,0.383,-1.658
up,4,380,14.000,10.313,1.687,-0.365,0.372,-1.587
up,4,400,-1.312,23.937,23.000,-0.293,0.342,-1.509
up,4,420,-4.625,28.687,42.688,-0.278,0.322,-1.416
up,4,440,7.625,19.187,43.563,-0.242,0.286,-1.308
up,4,460,25.562,0.625,37.063,-0.187,0.249,-1.212
up,4,480,35.313,9.688,30.000,-0.134,0.234,-1.130
up,4,500,41.938,33.625,20.812,-0.115,0.234,-1.001
up,4,520,46.563,46.563,8.875,-0.092,0.248,-0.891
up,4,540,43.938,58.688,1.625,-0.052,0.240,-0.834
up,4,560,39.875,76.188,-1.250,0.024,0.160,-0.748
up,4,580,45.000,80.688,-12.375,0.029,0.179,-0.618
up,4,600,54.688,79.750,-40.500,0.023,0.170,-0.573
up,4,620,66.688,76.250,-71.938,0.077,0.181,-0.541
up,4,640,78.188,79.438,-113.875,0.071,0.149,-0.574
up,4,660,96.000,87.125,-143.875,0.065,0.186,-0.536
up,4,680,81.063,78.063,-120.688,0.094,0.239,-0.505
up,4,700,48.188,75.563,-71.500,0.114,0.122,-0.552
up,4,720,36.750,84.250,-50.500,0.088,0.062,-0.554
up,4,740,32.625,72.125,-55.375,0.107,0.129,-0.524
up,4,760,14.938,46.688,-30.312,0.194,0.106,-0.595
up,4,780,-0.625,41.625,22.437,0.226,0.019,-0.691
up,4,800,-9.813,62.938,31.187,0.172,-0.050,-0.699
up,4,820,6.062,38.750,-5.937,0.211,-0.044,-0.687
up,4,840,10.625,1.125,-12.000,0.271,-0.042,-0.750
up,4,860,-3.375,5.562,-1.750,0.244,-0.067,-0.837
up,4,880,-4.375,18.500,-15.750,0.234,-0.078,-0.842
up,4,900,2.938,4.312,-34.813,0.262,-0.011,-0.838
up,4,920,-0.625,-1.875,-29.875,0.289,-0.020,-0.856
up,4,940,-6.312,9.813,-25.000,0.265,-0.034,-0.802
up,4,960,-15.750,2.313,-28.000,0.269,0.015,-0.810
up,4,980,-18.312,-3.188,-21.062,0.280,-0.006,-0.864
up,4,1000,-3.813,-9.063,-9.313,0.312,0.020,-0.833
up,4,1020,3.625,-12.688,6.062,0.315,0.043,-0.798
up,4,1040,-0.750,-6.750,26.875,0.293,0.010,-0.765
up,4,1060,-6.750,-2.438,30.562,0.252,0.010,-0.667
up,4,1080,-14.563,-11.875,28.812,0.211,0.043,-0.608
up,4,1100,-18.812,-14.375,17.750,0.219,0.037,-0.612
up,4,1120,-22.312,-19.625,18.562,0.196,0.093,-0.598
up,4,1140,-39.938,-28.500,43.813,0.149,0.036,-0.652
up,4,1160,-38.250,-31.875,46.875,0.038,-0.071,-0.701
up,4,1180,-6.187,-50.375,-4.750,-0.086,-0.084,-0.685
up,4,1200,40.750,-79.500,-76.813,-0.115,0.016,-0.712
up,4,1220,42.188,-89.438,-94.063,-0.042,0.091,-0.838
up,4,1240,6.312,-61.500,-40.125,0.084,-0.020,-0.935
up,4,1260,-2.625,-7.750,-7.250,0.015,0.009,-0.893
up,4,1280,15.938,14.438,-14.250,-0.058,0.122,-0.763
up,4,1300,26.500,-11.188,-23.687,0.002,0.133,-0.730
up,4,1320,19.750,-25.625,-7.625,0.210,0.041,-0.736
up,4,1340,18.250,-3.000,24.687,0.222,0.007,-0.748
up,4,1360,5.875,17.562,50.438,0.112,0.062,-0.670
up,4,1380,-8.000,-5.125,42.063,0.066,0.077,-0.740
up,4,1400,-16.875,-11.625,35.813,0.113,0.012,-0.824
up,4,1420,-12.938,-34.313,45.813,0.167,-0.038,-0.803
up,4,1440,-56.000,-26.437,54.438,0.041,0.069,-0.991
up,4,1460,-100.125,-11.313,37.750,0.044,0.085,-1.243
up,4,1480,-100.313,-4.187,42.063,0.113,0.013,-1.322
up,4,1500,-66.375,-18.875,27.312,0.211,0.055,-1.265
up,4,1520,-39.250,-67.000,18.000,0.145,0.106,-1.289
up,4,1540,-56.000,-71.688,23.437,0.043,0.194,-1.412
up,4,1560,-79.813,-59.000,23.125,-0.120,0.283,-1.611
up,4,1580,-77.250,-23.187,21.312,-0.108,0.287,-1.767
up,4,1600,-32.188,-7.625,33.563,0.043,0.213,-1.593
up,4,1620,-2.438,-10.250,48.375,0.029,0.234,-1.373
up,4,1640,-10.438,-19.500,46.063,-0.184,0.292,-1.323
up,4,1660,-41.063,-13.750,48.563,-0.235,0.291,-1.421
up,4,1680,-41.563,4.500,22.937,-0.151,0.310,-1.419
up,4,1700,-19.062,1.937,19.562,-0.097,0.337,-1.379
up,4,1720,6.562,-12.438,13.563,-0.166,0.343,-1.366
up,4,1740,16.875,-8.813,10.063,-0.140,0.323,-1.285
up,4,1760,17.375,-5.937,13.563,-0.091,0.314,-1.182
up,4,1780,7.687,0.125,17.875,-0.074,0.292,-1.122
up,4,1800,-0.562,5.625,23.625,-0.092,0.268,-1.097
up,4,1820,-2.125,7.000,19.125,-0.096,0.247,-1.061
up,4,1840,1.937,1.187,9.875,-0.091,0.236,-1.027
up,4,1860,7.250,-9.125,-2.688,-0.099,0.241,-1.020
up,4,1880,7.250,-9.750,-12.500,-0.080,0.262,-1.009
up,4,1900,7.250,-7.562,-10.125,-0.043,0.278,-1.002
up,4,1920,8.438,-4.062,-3.250,-0.038,0.277,-1.003
up,4,1940,4.875,-1.062,1.000,-0.067,0.267,-0.996
up,4,1960,2.313,0.937,-0.562,-0.066,0.257,-0.999
up,4,1980,4.687,2.375,-3.250,-0.065,0.254,-1.000
up,4,2000,8.563,1.750,-2.188,-0.067,0.251,-0.984
up,5,1,-0.187,-0.562,-1.937,-0.061,0.198,-1.000
up,5,21,0.500,-0.312,-1.625,-0.058,0.198,-1.007
up,5,40,0.875,0.125,-0.625,-0.064,0.198,-1.013
up,5,60,1.250,0.000,-1.000,-0.078,0.195,-1.022
up,5,80,2.625,-0.875,-3.813,-0.079,0.197,-1.029
up,5,100,3.000,-1.250,-5.312,-0.069,0.204,-1.028
up,5,120,1.750,-0.312,-3.313,-0.058,0.213,-1.032
up,5,140,1.250,2.563,-0.250,-0.062,0.211,-1.044
up,5,160,3.563,1.062,0.125,-0.066,0.209,-1.041
up,5,180,4.437,-3.500,-0.875,-0.066,0.207,-1.042
up,5,200,3.500,-9.688,-0.937,-0.067,0.205,-1.062
up,5,220,-2.813,-16.437,2.813,-0.103,0.237,-1.149
up,5,240,-18.625,-21.500,13.125,-0.170,0.272,-1.320
up,5,260,-41.063,-19.687,25.062,-0.221,0.292,-1.552
up,5,280,-52.938,-17.187,39.438,-0.265,0.335,-1.750
up,5,300,-57.938,-7.687,49.000,-0.322,0.323,-1.870
up,5,320,-38.375,1.062,43.938,-0.308,0.293,-1.849
up,5,340,-6.562,-6.625,31.187,-0.230,0.280,-1.718
up,5,360,16.437,-13.375,18.312,-0.185,0.275,-1.589
up,5,380,27.500,-22.312,5.937,-0.157,0.267,-1.466
up,5,400,25.687,-41.250,2.813,-0.123,0.245,-1.359
up,5,420,8.938,-54.875,16.625,-0.114,0.208,-1.274
up,5,440,-7.750,-49.500,24.062,-0.175,0.245,-1.225
up,5,460,-11.438,-32.438,22.500,-0.188,0.320,-1.179
up,5,480,-4.000,-12.188,25.875,-0.182,0.392,-1.121
up,5,500,0.750,6.062,33.875,-0.221,0.398,-1.073
up,5,520,20.000,21.375,38.625,-0.169,0.331,-0.982
up,5,540,60.500,42.625,14.188,-0.191,0.368,-0.829
up,5,560,75.625,54.375,-21.250,-0.176,0.396,-0.766
up,5,580,91.438,61.750,-49.063,-0.059,0.408,-0.659
up,5,600,95.438,59.875,-50.875,-0.010,0.480,-0.484
up,5,620,90.813,57.688,-50.875,0.022,0.377,-0.490
up,5,640,95.625,65.625,-66.375,0.077,0.337,-0.416
up,5,660,92.313,47.813,-70.438,0.208,0.380,-0.363
up,5,680,73.938,50.938,-39.125,0.260,0.284,-0.525
up,5,700,66.563,87.250,4.187,0.221,0.109,-0.630
up,5,720,67.063,104.438,30.937,0.139,-0.005,-0.564
up,5,740,59.563,91.813,33.313,0.084,-0.156,-0.569
up,5,760,49.750,85.625,35.688,0.093,-0.276,-0.528
up,5,780,29.937,72.313,30.687,0.119,-0.273,-0.455
up,5,800,13.063,31.187,0.625,0.090,-0.273,-0.588
up,5,820,9.375,6.625,-20.437,0.025,-0.283,-0.845
up,5,840,12.250,6.437,-38.438,0.061,-0.219,-0.893
up,5,860,17.812,-4.312,-40.875,0.140,-0.168,-0.878
up,5,880,18.250,-6.937,-31.875,0.191,-0.165,-0.918
up,5,900,14.688,-2.063,-24.812,0.148,-0.161,-0.918
up,5,920,8.563,1.687,-19.500,0.138,-0.192,-0.911
up,5,940,8.750,1.812,-14.500,0.180,-0.193,-0.845
up,5,960,2.063,3.813,-5.187,0.150,-0.213,-0.845
up,5,980,-3.813,12.438,-3.938,0.097,-0.245,-0.846
up,5,1000,-2.313,0.562,-10.813,0.128,-0.210,-0.752
up,5,1020,-6.187,-16.625,-13.250,0.168,-0.181,-0.730
up,5,1040,-20.875,-21.062,-9.563,0.143,-0.167,-0.784
up,5,1060,-32.625,-14.313,-8.000,0.082,-0.158,-0.832
up,5,1080,-32.313,-12.438,-17.312,0.072,-0.163,-0.810
up,5,1100,-26.437,-22.312,-37.188,0.136,-0.114,-0.714
up,5,1120,-27.500,-43.563,-41.938,0.181,-0.006,-0.676
up,5,1140,-38.313,-51.750,-10.500,0.085,0.018,-0.873
up,5,1160,-31.562,-23.562,21.625,0.111,-0.063,-0.934
up,5,1180,-11.063,-9.188,28.375,0.087,0.004,-0.835
up,5,1200,0.812,-11.875,22.562,0.073,0.033,-0.845
up,5,1220,-0.687,-8.938,33.188,0.079,0.085,-0.857
up,5,1240,-7.937,12.563,58.688,0.101,0.087,-0.844
up,5,1260,-13.063,36.813,76.063,0.083,0.032,-0.778
up,5,1280,-14.063,33.063,57.438,0.030,-0.034,-0.701
up,5,1300,-8.188,13.375,4.562,-0.022,-0.017,-0.642
up,5,1320,-7.875,-7.375,-39.125,-0.052,0.131,-0.622
up,5,1340,2.125,-49.063,-46.813,0.039,0.199,-0.798
up,5,1360,22.937,-55.500,-12.625,0.100,0.083,-0.924
up,5,1380,10.500,-9.438,14.938,0.041,0.066,-0.834
up,5,1400,-30.500,30.500,37.000,-0.018,0.097,-0.712
up,5,1420,-63.625,31.750,26.000,-0.014,-0.007,-0.784
up,5,1440,-62.375,8.250,5.875,0.054,-0.105,-0.822
up,5,1460,-47.688,-17.937,6.937,0.135,-0.136,-0.818
up,5,1480,-59.188,26.875,14.625,0.104,-0.056,-0.853
up,5,1500,-94.688,40.063,-10.125,0.035,0.048,-0.906
up,5,1520,-90.688,-15.000,-37.938,0.141,0.030,-1.019
up,5,1540,-46.188,-34.813,-32.125,0.256,0.055,-1.052
up,5,1560,-37.563,-37.000,-33.188,0.212,0.167,-1.044
up,5,1580,-49.438,-56.813,-40.063,0.063,0.226,-1.204
up,5,1600,-59.688,-69.625,-50.313,0.070,0.268,-1.333
up,5,1620,-74.625,-59.125,-32.188,0.150,0.321,-1.400
up,5,1640,-88.875,-23.687,-1.000,0.035,0.375,-1.519
up,5,1660,-83.125,-6.187,12.313,-0.079,0.378,-1.579
up,5,1680,-66.625,-14.313,2.813,-0.156,0.397,-1.573
up,5,1700,-63.438,-16.062,-7.062,-0.171,0.461,-1.563
up,5,1720,-59.500,-8.750,-3.875,-0.108,0.492,-1.527
up,5,1740,-41.813,-6.187,1.562,-0.062,0.485,-1.491
up,5,1760,-19.062,10.688,-1.250,-0.107,0.494,-1.468
up,5,1780,3.563,8.750,-6.812,-0.093,0.473,-1.345
up,5,1800,17.250,-4.437,-11.750,-0.026,0.469,-1.211
up,5,1820,11.188,-7.062,-6.937,0.004,0.480,-1.147
up,5,1840,-0.687,1.437,1.562,-0.004,0.461,-1.131
up,5,1860,2.125,7.125,5.125,-0.031,0.425,-1.103
up,5,1880,11.438,2.500,5.625,-0.025,0.408,-1.069
up,5,1900,18.312,0.187,3.000,-0.007,0.387,-1.045
up,5,1920,19.375,1.312,3.500,0.007,0.377,-0.987
up,5,1940,11.625,0.187,6.750,0.005,0.365,-0.957
up,5,1960,6.625,2.125,8.750,-0.011,0.351,-0.992
up,5,1980,13.750,5.375,6.500,-0.027,0.331,-1.005
up,5,2000,20.250,3.688,2.813,-0.025,0.318,-0.957
up,6,1,-0.625,0.937,0.750,-0.034,0.299,-1.004
up,6,21,-0.625,0.937,0.937,-0.042,0.297,-0.995
up,6,40,-0.375,0.375,-0.125,-0.038,0.296,-1.000
up,6,60,1.312,-0.687,-0.187,-0.037,0.295,-0.997
up,6,80,-1.062,-0.625,1.062,-0.042,0.293,-0.992
up,6,100,-3.125,0.562,0.687,-0.051,0.293,-1.003
up,6,120,-1.000,-0.062,-1.500,-0.053,0.298,-1.009
up,6,140,0.812,-0.500,-2.813,-0.048,0.305,-1.021
up,6,160,2.313,-0.437,-1.812,-0.042,0.314,-1.025
up,6,180,2.750,-0.750,-0.937,-0.045,0.319,-1.022
up,6,200,3.000,-2.813,-1.250,-0.042,0.319,-1.020
up,6,220,4.500,-7.500,-2.000,-0.036,0.330,-1.021
up,6,240,5.125,-30.937,0.062,-0.034,0.343,-1.046
up,6,260,4.687,-24.812,1.687,-0.086,0.356,-1.150
up,6,280,7.875,-36.500,-2.563,-0.168,0.372,-1.301
up,6,300,16.687,-49.500,-12.563,-0.279,0.393,-1.499
up,6,320,26.125,-47.750,-19.750,-0.379,0.390,-1.697
up,6,340,36.375,-29.062,-18.812,-0.459,0.354,-1.833
up,6,360,44.188,-2.625,-12.125,-0.435,0.273,-1.836
up,6,380,55.125,16.937,-8.438,-0.400,0.214,-1.750
up,6,400,59.375,24.062,-7.375,-0.377,0.161,-1.706
up,6,420,60.438,32.750,-7.437,-0.273,0.061,-1.628
up,6,440,69.563,24.062,-5.062,-0.192,-0.017,-1.502
up,6,460,74.125,6.437,-8.250,-0.163,-0.012,-1.385
up,6,480,66.938,-13.625,-14.813,-0.103,0.028,-1.265
up,6,500,44.938,-15.125,-14.313,-0.019,0.051,-1.187
up,6,520,26.437,-11.563,2.500,0.006,0.094,-1.117
up,6,540,14.438,-3.188,15.625,0.028,0.060,-1.058
up,6,560,11.875,16.125,14.750,-0.029,0.042,-0.950
up,6,580,12.938,35.125,-8.500,-0.070,0.133,-0.791
up,6,600,-0.562,73.000,-26.750,-0.051,0.239,-0.666
up,6,620,-19.250,99.875,-10.688,-0.007,0.279,-0.575
up,6,640,-11.688,85.750,5.000,-0.017,0.312,-0.473
up,6,660,8.875,75.313,-22.375,0.009,0.370,-0.444
up,6,680,22.312,79.875,-57.938,0.075,0.452,-0.421
up,6,700,32.250,73.938,-63.313,0.229,0.441,-0.438
up,6,720,59.188,51.125,-47.563,0.368,0.354,-0.392
up,6,740,62.250,21.375,-43.500,0.447,0.251,-0.343
up,6,760,41.875,7.500,-30.125,0.488,0.119,-0.396
up,6,780,27.750,-4.062,-13.688,0.291,-0.027,-0.633
up,6,800,39.313,-14.125,-13.125,0.210,-0.057,-0.801
up,6,820,40.375,-2.000,3.125,0.102,-0.108,-0.796
up,6,840,26.750,13.500,12.063,-0.022,-0.178,-0.781
up,6,860,13.750,12.313,-0.750,-0.097,-0.258,-0.869
up,6,880,14.750,-2.813,-24.562,-0.042,-0.248,-0.875
up,6,900,12.250,-16.187,-31.750,0.040,-0.165,-0.877
up,6,920,5.687,-11.125,-20.687,0.083,-0.109,-1.011
up,6,940,6.687,14.750,3.750,0.036,-0.134,-1.045
up,6,960,13.125,18.812,6.625,0.037,-0.167,-0.939
up,6,980,14.000,8.813,5.562,0.079,-0.192,-0.854
up,6,1000,5.437,9.500,2.063,0.034,-0.238,-0.842
up,6,1020,4.000,-0.687,-7.562,0.057,-0.209,-0.833
up,6,1040,1.375,-7.437,-3.125,0.094,-0.168,-0.840
up,6,1060,-2.063,-4.562,3.500,0.047,-0.179,-0.911
up,6,1080,-3.813,3.313,0.437,-0.002,-0.215,-0.920
up,6,1100,-5.125,2.063,-10.500,0.073,-0.179,-0.843
up,6,1120,-12.188,-2.938,-19.937,0.189,-0.157,-0.764
up,6,1140,-21.062,-14.313,-31.625,0.255,-0.108,-0.692
up,6,1160,-30.500,-27.875,-30.562,0.240,-0.043,-0.669
up,6,1180,-41.875,-30.625,-16.750,0.184,0.016,-0.681
up,6,1200,-56.375,-19.750,5.937,0.163,0.021,-0.691
up,6,1220,-61.063,-7.125,22.000,0.161,0.016,-0.651
up,6,1240,-58.313,-8.063,32.688,0.118,0.040,-0.606
up,6,1260,-51.625,-16.875,27.812,0.066,0.078,-0.571
up,6,1280,-41.563,-28.312,14.938,0.010,0.101,-0.593
up,6,1300,-34.500,-33.125,7.937,-0.067,0.101,-0.650
up,6,1320,-18.437,-29.875,-4.875,-0.109,0.126,-0.665
up,6,1340,-2.875,-34.875,-21.312,-0.108,0.111,-0.637
up,6,1360,3.250,-50.125,-23.812,-0.106,0.089,-0.648
up,6,1380,-3.500,-40.500,-19.625,-0.147,0.167,-0.733
up,6,1400,-28.062,-13.500,-11.125,-0.094,0.141,-0.794
up,6,1420,-43.313,6.625,5.562,-0.004,0.022,-0.783
up,6,1440,-43.125,-7.125,23.000,-0.031,0.109,-0.735
up,6,1460,-63.625,-25.875,38.250,-0.057,0.201,-0.862
up,6,1480,-87.188,-13.563,41.750,-0.057,0.112,-1.081
up,6,1500,-95.250,50.375,45.375,-0.022,0.106,-1.073
up,6,1520,-80.125,21.937,35.750,0.035,0.186,-1.071
up,6,1540,-74.625,-10.813,41.125,-0.029,0.212,-1.202
up,6,1560,-86.625,1.625,29.062,-0.023,0.243,-1.256
up,6,1580,-92.688,-3.938,14.438,-0.033,0.319,-1.354
up,6,1600,-83.938,-4.062,19.687,-0.030,0.381,-1.543
up,6,1620,-62.688,17.875,16.000,-0.001,0.395,-1.573
up,6,1640,-29.937,16.625,13.875,0.117,0.438,-1.379
up,6,1660,-38.625,15.875,23.750,0.059,0.571,-1.250
up,6,1680,-64.438,15.313,21.562,0.029,0.611,-1.253
up,6,1700,-65.563,2.625,14.063,0.020,0.640,-1.340
up,6,1720,-40.813,-4.875,7.312,0.017,0.676,-1.448
up,6,1740,-13.938,11.438,8.250,0.033,0.675,-1.401
up,6,1760,4.375,6.000,7.062,0.063,0.657,-1.281
up,6,1780,9.313,-12.375,6.812,0.026,0.640,-1.232
up,6,1800,6.312,-13.313,6.750,0.019,0.626,-1.243
up,6,1820,12.563,-8.500,11.188,0.056,0.574,-1.192
up,6,1840,18.937,-2.813,17.875,0.048,0.531,-1.110
up,6,1860,17.000,-1.312,20.000,0.018,0.482,-1.060
up,6,1880,19.500,-8.750,14.125,0.022,0.431,-1.015
up,6,1900,19.500,-15.563,10.813,0.018,0.423,-1.000
up,6,1920,10.438,-7.625,6.250,-0.000,0.405,-1.005
up,6,1940,6.062,-1.062,5.937,-0.003,0.398,-1.004
up,6,1960,6.937,-1.250,6.625,0.008,0.391,-0.999
up,6,1980,5.687,1.062,8.000,0.011,0.395,-0.992
up,6,2000,3.313,6.250,8.938,0.001,0.391,-1.005
up,7,1,-0.312,4.000,2.375,0.024,0.363,-0.984
up,7,20,-0.312,3.500,1.125,0.021,0.358,-0.985
up,7,40,3.438,-1.000,-1.000,0.025,0.356,-0.981
up,7,60,4.437,-4.000,-1.062,0.024,0.358,-0.985
up,7,80,2.313,-2.688,-0.687,0.020,0.351,-0.986
up,7,100,2.063,-4.687,-1.562,0.021,0.348,-0.979
up,7,120,1.187,-7.437,-2.750,0.020,0.347,-0.987
up,7,140,1.875,-11.313,-2.750,0.025,0.355,-1.005
up,7,160,1.187,-15.688,-1.562,0.032,0.368,-1.023
up,7,180,0.812,-20.562,-4.250,0.053,0.370,-1.034
up,7,200,2.625,-33.813,-5.687,0.075,0.386,-1.046
up,7,220,-0.625,-46.313,-3.938,0.000,0.456,-1.178
up,7,240,-3.313,-51.938,0.062,-0.109,0.492,-1.365
up,7,260,5.250,-59.813,0.250,-0.218,0.534,-1.525
up,7,280,13.688,-61.875,-3.063,-0.351,0.566,-1.684
up,7,300,26.937,-41.375,-12.563,-0.434,0.563,-1.809
up,7,320,51.813,-23.937,-23.250,-0.413,0.541,-1.792
up,7,340,65.625,-6.812,-19.500,-0.409,0.479,-1.738
up,7,360,65.938,10.750,-13.688,-0.370,0.408,-1.646
up,7,380,61.625,26.500,-10.375,-0.317,0.320,-1.550
up,7,400,72.875,26.187,-19.750,-0.261,0.212,-1.473
up,7,420,85.125,15.000,-30.062,-0.164,0.172,-1.333
up,7,440,72.625,7.187,-25.062,-0.090,0.183,-1.205
up,7,460,47.375,11.188,-10.688,0.001,0.130,-1.114
up,7,480,36.688,11.938,-7.375,0.008,0.172,-1.035
up,7,500,30.000,20.625,-8.063,0.020,0.208,-0.966
up,7,520,19.000,36.500,-5.500,0.023,0.192,-0.882
up,7,540,7.437,44.750,-5.375,-0.039,0.186,-0.831
up,7,560,-4.750,65.563,-6.562,-0.014,0.186,-0.766
up,7,580,-23.812,90.688,15.625,-0.018,0.196,-0.729
up,7,600,-17.312,104.875,30.437,-0.068,0.140,-0.646
up,7,620,8.188,94.500,5.250,-0.110,0.213,-0.485
up,7,640,12.063,93.313,-20.437,-0.080,0.264,-0.421
up,7,660,16.125,103.250,-27.187,0.063,0.264,-0.363
up,7,680,22.000,93.188,-5.437,0.228,0.248,-0.301
up,7,700,13.563,101.813,20.875,0.289,0.158,-0.358
up,7,720,13.750,114.438,23.062,0.320,0.039,-0.338
up,7,740,20.062,72.875,-2.625,0.325,0.108,-0.418
up,7,760,36.813,22.437,-23.437,0.424,0.005,-0.673
up,7,780,49.875,15.625,-4.812,0.463,0.005,-0.722
up,7,800,37.625,22.687,21.562,0.351,0.008,-0.756
up,7,820,25.687,21.062,31.937,0.254,-0.060,-0.831
up,7,840,23.062,14.375,40.875,0.172,-0.134,-0.849
up,7,860,16.000,6.750,15.000,0.097,-0.163,-0.874
up,7,880,11.688,-6.937,-6.687,0.176,-0.143,-0.863
up,7,900,1.375,-8.625,-7.125,0.191,-0.112,-0.893
up,7,920,-2.563,-5.812,-12.313,0.205,-0.113,-0.927
up,7,940,5.812,-17.375,-14.500,0.254,-0.084,-0.898
up,7,960,3.750,-16.750,-9.625,0.203,-0.094,-0.901
up,7,980,1.750,-14.750,-18.312,0.149,-0.104,-0.905
up,7,1000,1.937,-22.000,-29.250,0.179,-0.072,-0.882
up,7,1020,-7.812,-24.062,-28.875,0.256,-0.004,-0.844
up,7,1040,-19.187,-19.562,-19.062,0.233,0.001,-0.925
up,7,1060,-21.625,-10.438,-12.938,0.164,-0.028,-0.972
up,7,1080,-20.750,-7.812,-20.000,0.142,-0.039,-0.938
up,7,1100,-17.312,-13.563,-36.875,0.206,-0.036,-0.861
up,7,1120,-11.500,-26.125,-60.813,0.296,-0.005,-0.741
up,7,1140,-11.000,-43.750,-71.500,0.316,0.074,-0.670
up,7,1160,-30.062,-50.875,-52.250,0.297,0.111,-0.700
up,7,1180,-36.500,-38.563,-32.000,0.299,0.119,-0.689
up,7,1200,-26.187,-35.125,-21.750,0.273,0.177,-0.640
up,7,1220,-21.312,-40.563,-10.000,0.237,0.212,-0.597
up,7,1240,-15.938,-44.500,12.500,0.160,0.237,-0.621
up,7,1260,-13.563,-41.000,35.750,0.082,0.246,-0.642
up,7,1280,-14.063,-31.625,47.438,0.008,0.153,-0.688
up,7,1300,6.250,-27.125,37.563,-0.078,0.097,-0.647
up,7,1320,26.937,-45.188,7.750,-0.097,0.176,-0.584
up,7,1340,37.125,-61.688,-15.063,-0.050,0.212,-0.598
up,7,1360,42.125,-62.688,-16.437,-0.006,0.177,-0.645
up,7,1380,32.563,-52.938,0.187,0.010,0.146,-0.672
up,7,1400,-0.562,-39.875,33.813,-0.006,0.126,-0.736
up,7,1420,-29.000,-19.562,60.625,-0.043,0.029,-0.858
up,7,1440,-48.188,2.688,70.938,-0.115,-0.026,-0.900
up,7,1460,-54.750,-15.938,57.063,-0.092,-0.050,-0.917
up,7,1480,-63.438,5.312,46.563,-0.042,-0.062,-0.956
up,7,1500,-77.250,11.375,20.937,-0.090,0.031,-1.026
up,7,1520,-83.375,-17.750,-12.000,-0.074,0.081,-1.147
up,7,1540,-86.125,-29.875,-12.375,-0.021,0.177,-1.267
up,7,1560,-96.375,-12.938,-15.250,0.034,0.252,-1.322
up,7,1580,-89.875,-20.750,-1.937,-0.031,0.287,-1.379
up,7,1600,-82.375,-24.562,2.813,-0.101,0.351,-1.417
up,7,1620,-89.563,-12.063,-0.625,-0.093,0.453,-1.398
up,7,1640,-94.750,1.125,3.563,-0.072,0.546,-1.376
up,7,1660,-84.000,-0.500,-1.875,-0.021,0.601,-1.321
up,7,1680,-77.500,-8.000,19.687,-0.056,0.716,-1.375
up,7,1700,-63.250,4.437,2.313,-0.166,0.731,-1.525
up,7,1720,-28.000,7.312,-11.000,-0.181,0.724,-1.462
up,7,1740,0.062,-13.375,-22.875,-0.088,0.730,-1.310
up,7,1760,-4.250,-12.750,-11.188,-0.060,0.736,-1.230
up,7,1780,-14.063,-3.750,5.250,-0.063,0.712,-1.219
up,7,1800,-9.813,3.438,16.062,-0.086,0.638,-1.227
up,7,1820,12.500,7.187,18.750,-0.054,0.562,-1.190
up,7,1840,35.875,6.187,18.812,-0.044,0.536,-1.078
up,7,1860,36.500,1.312,19.937,-0.035,0.536,-0.978
up,7,1880,21.750,-2.313,21.062,-0.037,0.498,-0.936
up,7,1900,12.188,-2.750,24.312,-0.040,0.460,-0.955
up,7,1920,15.063,-3.313,20.875,-0.044,0.432,-0.988
up,7,1940,22.000,-0.250,13.563,-0.065,0.417,-0.993
up,7,1960,19.625,-0.875,6.937,-0.066,0.419,-0.957
up,7,1980,5.312,1.375,4.250,-0.054,0.413,-0.943
up,7,2000,-6.437,6.812,4.062,-0.067,0.407,-0.970
up,8,1,-0.937,2.875,1.375,-0.028,0.388,-0.969
up,8,21,-1.625,2.438,0.687,-0.030,0.386,-0.974
up,8,40,0.875,1.687,-0.187,-0.025,0.386,-0.978
up,8,60,1.187,1.625,-1.125,-0.034,0.392,-0.966
up,8,80,0.125,-0.062,-2.125,-0.037,0.391,-0.981
up,8,100,0.250,0.000,-2.750,-0.035,0.392,-0.995
up,8,120,2.688,-3.375,-3.563,-0.025,0.394,-1.000
up,8,140,3.000,-10.000,-3.125,-0.006,0.407,-1.001
up,8,160,1.437,-13.500,-2.063,-0.019,0.423,-1.031
up,8,180,1.187,-21.812,-0.312,-0.029,0.448,-1.054
up,8,200,-0.250,-34.938,2.750,-0.034,0.479,-1.101
up,8,220,-4.437,-43.750,7.687,-0.075,0.526,-1.188
up,8,240,-4.500,-51.938,9.563,-0.154,0.547,-1.306
up,8,260,4.937,-71.438,2.813,-0.295,0.570,-1.468
up,8,280,11.313,-89.938,-9.625,-0.510,0.649,-1.722
up,8,300,23.500,-75.500,-26.000,-0.678,0.683,-2.007
up,8,320,54.063,-49.000,-38.313,-0.673,0.699,-2.040
up,8,340,82.063,-19.187,-41.500,-0.569,0.633,-1.935
up,8,360,97.250,15.063,-40.125,-0.448,0.500,-1.753
up,8,380,102.125,25.187,-39.938,-0.321,0.375,-1.593
up,8,400,109.000,25.562,-41.000,-0.179,0.262,-1.422
up,8,420,122.125,13.563,-46.750,-0.122,0.243,-1.252
up,8,440,116.625,5.000,-51.250,-0.044,0.201,-1.075
up,8,460,103.750,2.250,-50.688,0.074,0.128,-0.898
up,8,480,81.875,-8.563,-46.938,0.045,0.149,-0.757
up,8,500,38.625,-4.000,-35.500,-0.048,0.166,-0.794
up,8,520,22.625,24.375,-17.000,-0.067,0.072,-0.803
up,8,540,27.062,40.250,-9.375,-0.135,0.029,-0.696
up,8,560,23.625,42.688,-14.688,-0.208,0.100,-0.575
up,8,580,7.937,48.375,-25.312,-0.203,0.119,-0.589
up,8,600,8.188,68.688,-35.313,-0.220,0.096,-0.570
up,8,620,25.500,71.188,-56.438,-0.194,0.212,-0.441
up,8,640,23.062,68.438,-59.438,-0.079,0.283,-0.439
up,8,660,15.938,95.188,-39.750,0.033,0.222,-0.456
up,8,680,10.188,120.188,-21.750,0.058,0.176,-0.418
up,8,700,9.438,135.625,-20.500,0.111,0.030,-0.472
up,8,720,35.875,117.188,-51.000,0.196,-0.084,-0.553
up,8,740,71.500,103.563,-79.813,0.279,-0.171,-0.625
up,8,760,96.813,91.125,-98.375,0.379,-0.134,-0.524
up,8,780,82.500,34.250,-84.938,0.577,0.049,-0.317
up,8,800,49.500,-0.687,-29.500,0.549,-0.087,-0.609
up,8,820,38.500,11.188,6.812,0.335,-0.232,-0.811
up,8,840,40.188,1.625,12.063,0.199,-0.286,-0.783
up,8,860,33.563,-29.812,3.500,0.116,-0.317,-0.813
up,8,880,4.250,-28.437,8.750,0.076,-0.325,-0.863
up,8,900,-22.125,-12.625,16.625,0.077,-0.321,-0.901
up,8,920,-21.062,-17.375,13.125,0.113,-0.295,-0.927
up,8,940,-10.313,-24.375,16.125,0.128,-0.272,-0.933
up,8,960,-13.938,-14.250,20.062,0.087,-0.272,-0.913
up,8,980,-17.750,-10.938,14.313,0.060,-0.270,-0.877
up,8,1000,-17.625,-21.812,1.625,0.084,-0.238,-0.826
up,8,1020,-23.875,-29.312,-1.125,0.071,-0.221,-0.850
up,8,1040,-32.438,-20.375,1.062,-0.010,-0.245,-0.908
up,8,1060,-38.063,-11.875,-8.938,-0.019,-0.223,-0.912
up,8,1080,-39.625,-12.125,-22.687,0.040,-0.192,-0.892
up,8,1100,-41.313,-15.563,-38.563,0.119,-0.131,-0.835
up,8,1120,-42.125,-22.500,-44.750,0.185,-0.054,-0.789
up,8,1140,-44.750,-27.000,-31.625,0.209,-0.009,-0.802
up,8,1160,-44.563,-24.250,-14.063,0.225,-0.002,-0.808
up,8,1180,-34.313,-26.062,-7.250,0.205,0.050,-0.777
up,8,1200,-30.500,-28.625,14.250,0.197,0.098,-0.736
up,8,1220,-42.438,-15.125,60.938,0.180,0.068,-0.716
up,8,1240,-57.438,4.937,100.688,0.109,0.042,-0.686
up,8,1260,-64.125,5.062,116.188,-0.009,0.018,-0.696
up,8,1280,-55.125,-7.687,121.625,-0.087,-0.044,-0.744
up,8,1300,-23.312,-18.937,82.938,-0.140,-0.016,-0.712
up,8,1320,7.375,-43.438,32.938,-0.104,0.055,-0.650
up,8,1340,33.750,-73.313,-6.875,-0.058,0.119,-0.622
up,8,1360,46.063,-96.688,-18.812,-0.019,0.208,-0.605
up,8,1380,48.188,-97.188,-17.687,-0.077,0.286,-0.753
up,8,1400,35.063,-68.500,2.063,-0.033,0.264,-0.786
up,8,1420,1.812,-30.250,46.688,0.018,0.180,-0.682
up,8,1440,-37.000,-11.313,77.188,-0.068,0.116,-0.663
up,8,1460,-59.375,-11.813,67.250,-0.242,0.076,-0.841
up,8,1480,-52.563,-30.500,33.938,-0.251,0.035,-1.003
up,8,1500,-33.375,-39.250,28.500,-0.074,0.035,-1.018
up,8,1520,-47.750,2.188,39.375,-0.035,0.051,-0.974
up,8,1540,-67.063,-22.062,34.438,-0.237,0.137,-1.022
up,8,1560,-86.313,-54.875,30.250,-0.277,0.147,-1.248
up,8,1580,-100.688,-30.187,17.937,-0.136,0.146,-1.371
up,8,1600,-80.813,-17.437,30.437,-0.089,0.144,-1.366
up,8,1620,-61.375,-25.812,39.688,-0.278,0.196,-1.424
up,8,1640,-65.375,-28.375,30.375,-0.421,0.279,-1.528
up,8,1660,-86.375,7.125,26.187,-0.331,0.328,-1.553
up,8,1680,-84.625,37.625,36.563,-0.229,0.343,-1.423
up,8,1700,-68.688,23.625,44.688,-0.302,0.433,-1.369
up,8,1720,-58.063,9.688,33.688,-0.384,0.496,-1.499
up,8,1740,-44.938,28.125,19.312,-0.324,0.529,-1.481
up,8,1760,-32.938,45.563,16.687,-0.206,0.532,-1.330
up,8,1780,-19.250,55.063,30.687,-0.087,0.531,-1.164
up,8,1800,0.562,20.187,22.062,-0.081,0.513,-1.056
up,8,1820,2.625,-5.562,19.937,-0.126,0.532,-1.060
up,8,1840,-8.000,-3.750,16.625,-0.159,0.504,-1.146
up,8,1860,0.187,22.500,10.750,-0.192,0.454,-1.180
up,8,1880,20.312,20.937,5.750,-0.185,0.439,-1.093
up,8,1900,28.250,7.562,2.125,-0.137,0.432,-1.046
up,8,1920,25.562,8.500,6.250,-0.095,0.433,-1.027
up,8,1940,20.625,16.437,13.063,-0.098,0.416,-1.005
up,8,1960,15.688,13.938,15.500,-0.112,0.384,-1.125
up,8,1980,12.125,15.125,11.250,-0.107,0.353,-1.007
up,8,2000,12.938,17.437,6.812,-0.091,0.348,-1.002
up,9,1,2.000,0.500,3.438,-0.048,0.311,-0.990
up,9,21,3.438,1.937,1.312,-0.054,0.308,-1.013
up,9,40,6.625,3.750,-1.000,-0.046,0.317,-0.878
up,9,60,3.563,1.187,0.812,-0.051,0.322,-0.982
up,9,80,-1.312,1.687,1.687,-0.042,0.321,-0.998
up,9,100,-1.937,2.938,1.625,-0.026,0.316,-1.000
up,9,120,-0.687,0.625,0.500,-0.033,0.308,-0.989
up,9,140,4.562,-7.375,-3.750,-0.030,0.315,-1.001
up,9,160,6.750,-16.125,-6.937,-0.006,0.333,-0.998
up,9,180,3.125,-26.125,-5.812,0.015,0.347,-0.994
up,9,200,-0.437,-42.313,2.375,0.025,0.354,-1.027
up,9,220,-5.375,-58.500,10.375,-0.050,0.391,-1.114
up,9,240,-12.125,-86.750,18.687,-0.202,0.443,-1.239
up,9,260,-12.875,-119.563,22.687,-0.459,0.484,-1.480
up,9,280,-7.687,-127.750,3.250,-0.773,0.467,-1.849
up,9,300,14.813,-95.125,-30.375,-0.885,0.450,-2.063
up,9,320,42.938,-66.313,-52.563,-0.865,0.450,-2.044
up,9,340,58.875,-34.625,-62.875,-0.721,0.437,-1.917
up,9,360,61.313,6.625,-52.938,-0.517,0.438,-1.689
up,9,380,52.875,29.750,-29.250,-0.453,0.330,-1.526
up,9,400,60.188,28.687,-24.875,-0.394,0.144,-1.415
up,9,420,64.688,22.500,-33.938,-0.303,0.109,-1.208
up,9,440,38.875,12.750,-38.000,-0.271,0.191,-1.030
up,9,460,10.250,-6.562,-35.125,-0.241,0.186,-0.994
up,9,480,0.812,-4.125,-34.188,-0.156,0.209,-0.977
up,9,500,-1.312,8.438,-31.312,-0.122,0.239,-0.921
up,9,520,3.938,34.313,-28.750,-0.184,0.228,-0.893
up,9,540,16.312,62.750,-42.063,-0.146,0.186,-0.817
up,9,560,19.062,74.500,-43.875,-0.056,0.280,-0.592
up,9,580,28.125,58.063,-38.813,-0.025,0.331,-0.547
up,9,600,52.063,70.500,-49.875,0.034,0.306,-0.538
up,9,620,52.375,84.250,-55.625,0.056,0.340,-0.352
up,9,640,43.938,76.563,-49.063,0.111,0.347,-0.379
up,9,660,47.563,95.000,-27.062,0.105,0.255,-0.493
up,9,680,40.688,101.688,-17.312,0.102,0.187,-0.382
up,9,700,33.000,84.688,-23.250,0.226,0.152,-0.407
up,9,720,35.813,66.875,4.062,0.362,0.087,-0.522
up,9,740,30.750,71.250,47.625,0.265,-0.072,-0.576
up,9,760,27.500,63.688,51.813,0.116,-0.244,-0.554
up,9,780,19.625,35.500,25.562,0.012,-0.340,-0.500
up,9,800,8.625,-6.562,-15.875,0.007,-0.349,-0.596
up,9,820,-3.000,-23.187,-28.250,0.039,-0.290,-0.706
up,9,840,-13.500,-32.125,-31.062,-0.010,-0.234,-0.820
up,9,860,-17.437,-33.688,-37.500,-0.061,-0.195,-0.966
up,9,880,-20.687,-23.562,-37.063,-0.044,-0.130,-1.009
up,9,900,-17.500,-20.437,-32.875,0.033,-0.056,-0.958
up,9,920,-13.188,-21.125,-17.437,0.121,0.006,-0.966
up,9,940,-8.125,-10.688,13.500,0.061,-0.021,-0.976
up,9,960,-7.437,-3.000,30.500,-0.000,-0.071,-0.903
up,9,980,-10.625,-4.125,28.125,-0.010,-0.119,-0.871
up,9,1000,-15.750,-10.625,14.563,-0.013,-0.116,-0.842
up,9,1020,-23.562,-16.750,6.187,-0.013,-0.076,-0.830
up,9,1040,-32.750,-12.000,-0.937,-0.017,-0.034,-0.803
up,9,1060,-43.375,-14.500,-12.750,0.039,0.011,-0.739
up,9,1080,-56.000,-24.937,-15.563,0.088,0.059,-0.752
up,9,1100,-63.000,-18.937,0.062,0.040,0.092,-0.836
up,9,1120,-64.375,-3.563,14.500,-0.014,0.120,-0.827
up,9,1140,-55.250,-2.000,11.500,-0.018,0.139,-0.757
up,9,1160,-40.500,-20.875,-10.188,0.016,0.196,-0.649
up,9,1180,-43.625,-40.438,-10.125,0.010,0.263,-0.648
up,9,1200,-68.313,-27.875,22.187,-0.029,0.272,-0.776
up,9,1220,-75.438,11.250,48.125,-0.053,0.229,-0.829
up,9,1240,-50.563,19.562,32.438,-0.046,0.176,-0.720
up,9,1260,-11.500,3.375,-8.625,-0.071,0.191,-0.597
up,9,1280,7.312,-19.562,-37.375,-0.095,0.333,-0.507
up,9,1300,-15.125,-52.375,-19.000,-0.058,0.406,-0.614
up,9,1320,-49.875,-49.875,57.563,0.018,0.188,-0.858
up,9,1340,-49.938,-4.812,102.813,-0.119,0.159,-0.857
up,9,1360,-24.250,3.125,82.063,-0.221,0.181,-0.719
up,9,1380,7.062,-51.875,27.687,-0.247,0.245,-0.711
up,9,1400,16.625,-89.750,-16.437,-0.150,0.297,-0.818
up,9,1420,3.188,-57.875,-9.938,0.008,0.258,-0.917
up,9,1440,-30.812,-24.625,23.437,-0.062,0.271,-0.951
up,9,1460,-66.813,-16.312,41.063,-0.281,0.362,-1.042
up,9,1480,-83.750,-22.312,41.000,-0.262,0.377,-1.199
up,9,1500,-71.625,-2.875,34.063,-0.154,0.321,-1.317
up,9,1520,-46.813,-9.938,26.125,-0.195,0.354,-1.280
up,9,1540,-41.313,-16.125,25.937,-0.252,0.454,-1.348
up,9,1560,-39.625,-13.625,23.250,-0.249,0.481,-1.423
up,9,1580,-43.750,-0.687,33.000,-0.186,0.519,-1.368
up,9,1600,-56.375,17.625,56.500,-0.238,0.587,-1.331
up,9,1620,-52.688,17.562,54.688,-0.359,0.657,-1.325
up,9,1640,-44.813,3.188,33.625,-0.367,0.675,-1.321
up,9,1660,-40.500,26.125,20.500,-0.272,0.677,-1.411
up,9,1680,-25.375,46.875,14.375,-0.230,0.700,-1.377
up,9,1700,1.375,44.188,13.500,-0.200,0.651,-1.298
up,9,1720,18.250,47.313,10.438,-0.130,0.622,-1.152
up,9,1740,13.813,42.250,12.875,-0.060,0.605,-1.029
up,9,1760,1.875,29.312,18.000,-0.014,0.550,-0.993
up,9,1780,-3.375,15.875,15.375,-0.018,0.530,-0.990
up,9,1800,0.937,-6.937,0.812,-0.036,0.538,-0.996
up,9,1820,5.437,-26.812,-7.187,-0.047,0.556,-1.004
up,9,1840,-0.812,-35.250,-4.562,-0.068,0.599,-1.033
up,9,1860,-10.000,-27.000,1.375,-0.081,0.594,-1.073
up,9,1880,-9.000,-14.500,8.875,-0.088,0.574,-1.059
up,9,1900,-5.750,-3.063,8.625,-0.114,0.559,-1.017
up,9,1920,1.250,1.500,-0.375,-0.118,0.529,-0.983
up,9,1940,10.438,0.937,-11.188,-0.085,0.519,-0.929
up,9,1960,10.313,2.875,-8.188,-0.059,0.514,-0.891
up,9,1980,3.813,8.438,0.750,-0.051,0.503,-0.881
up,9,2000,1.937,11.563,7.062,-0.050,0.477,-0.878
up,10,1,4.062,-2.125,2.000,-0.063,0.481,-0.927
up,10,21,1.187,-0.437,4.125,-0.066,0.475,-0.937
up,10,40,0.062,0.937,2.938,-0.083,0.468,-0.942
up,10,60,2.625,-1.750,-0.812,-0.078,0.466,-0.945
up,10,80,4.687,-3.688,-2.438,-0.068,0.476,-0.952
up,10,100,3.688,-2.375,-0.875,-0.071,0.475,-0.952
up,10,120,1.250,-3.625,-0.625,-0.085,0.472,-0.954
up,10,140,0.937,-9.750,-3.188,-0.080,0.470,-0.981
up,10,160,4.187,-15.563,-5.375,-0.094,0.486,-1.028
up,10,180,6.000,-23.937,-8.813,-0.107,0.502,-1.062
up,10,200,5.875,-34.688,-11.000,-0.136,0.539,-1.120
up,10,220,-0.562,-44.375,-8.313,-0.181,0.602,-1.209
up,10,240,0.000,-52.500,-5.250,-0.264,0.654,-1.321
up,10,260,12.813,-63.438,-6.312,-0.349,0.671,-1.403
up,10,280,32.313,-76.688,-17.125,-0.373,0.648,-1.442
up,10,300,42.938,-75.125,-22.875,-0.464,0.675,-1.454
up,10,320,44.125,-74.000,-30.125,-0.561,0.680,-1.484
up,10,340,52.813,-69.125,-41.500,-0.544,0.614,-1.527
up,10,360,65.500,-52.375,-38.688,-0.543,0.551,-1.534
up,10,380,70.563,-33.438,-41.563,-0.523,0.457,-1.475
up,10,400,73.688,-21.562,-46.688,-0.426,0.375,-1.367
up,10,420,65.375,-6.125,-31.312,-0.421,0.347,-1.279
up,10,440,48.625,15.250,-20.250,-0.334,0.238,-1.250
up,10,460,49.625,29.812,-19.875,-0.336,0.167,-1.126
up,10,480,49.563,18.750,-32.813,-0.417,0.223,-1.024
up,10,500,41.938,11.813,-37.000,-0.277,0.279,-0.979
up,10,520,51.375,6.375,5.437,-0.145,0.333,-0.859
up,10,540,69.500,9.000,45.563,-0.139,0.368,-0.772
up,10,560,90.563,20.625,35.563,-0.085,0.394,-0.744
up,10,580,93.125,28.875,-1.375,-0.001,0.333,-0.698
up,10,600,77.438,30.000,-30.687,-0.074,0.244,-0.713
up,10,620,77.250,25.750,-50.750,-0.103,0.226,-0.742
up,10,640,82.313,30.437,-52.875,-0.067,0.228,-0.729
up,10,660,69.750,61.000,-43.563,-0.112,0.157,-0.619
up,10,680,45.750,67.000,-48.063,-0.147,0.104,-0.520
up,10,700,39.250,65.188,-46.875,-0.149,0.009,-0.612
up,10,720,51.438,64.188,-47.000,-0.131,-0.053,-0.597
up,10,740,40.125,65.500,-47.688,-0.045,-0.054,-0.497
up,10,760,21.937,71.938,-45.250,-0.024,-0.130,-0.483
up,10,780,10.563,56.750,-49.563,-0.021,-0.248,-0.523
up,10,800,6.375,36.813,-62.875,0.037,-0.256,-0.515
up,10,820,-6.187,14.813,-66.000,0.067,-0.183,-0.586
up,10,840,-10.375,3.188,-60.250,0.069,-0.179,-0.720
up,10,860,-15.063,3.688,-50.750,0.010,-0.194,-0.785
up,10,880,-13.063,3.500,-48.813,-0.106,-0.228,-0.810
up,10,900,-13.813,-5.750,-52.625,-0.053,-0.178,-0.807
up,10,920,-11.750,-3.188,-39.750,0.009,-0.157,-0.900
up,10,940,-7.500,-0.312,-20.875,0.033,-0.154,-0.887
up,10,960,-3.625,-11.313,-9.563,0.006,-0.167,-0.888
up,10,980,-1.125,-13.438,0.375,-0.078,-0.191,-0.934
up,10,1000,-1.187,-8.938,1.625,-0.119,-0.201,-0.934
up,10,1020,-0.375,-10.938,5.875,-0.086,-0.173,-0.934
up,10,1040,-2.188,1.125,14.438,-0.151,-0.202,-0.946
up,10,1060,-6.500,-0.875,2.000,-0.166,-0.182,-0.904
up,10,1080,-11.250,-9.313,-6.062,-0.089,-0.138,-0.940
up,10,1100,-14.500,-1.562,-2.875,-0.077,-0.096,-0.943
up,10,1120,-16.000,2.438,-3.000,-0.078,-0.091,-0.930
up,10,1140,-13.188,-0.250,-10.188,-0.075,-0.106,-0.905
up,10,1160,-12.313,-6.625,-20.187,-0.101,-0.131,-0.911
up,10,1180,-12.938,-7.375,-33.313,-0.089,-0.097,-0.878
up,10,1200,-13.750,-11.750,-40.313,-0.055,-0.054,-0.849
up,10,1220,-15.750,-15.250,-42.000,-0.001,-0.033,-0.828
up,10,1240,-17.000,-22.750,-37.500,0.025,0.000,-0.821
up,10,1260,-21.750,-21.750,-14.938,-0.010,-0.002,-0.872
up,10,1280,-29.687,-9.250,-0.437,-0.057,-0.025,-0.864
up,10,1300,-34.188,-7.312,-5.625,-0.046,-0.008,-0.800
up,10,1320,-36.250,-19.375,-22.000,0.002,0.044,-0.731
up,10,1340,-50.250,-30.062,-11.000,-0.005,0.096,-0.767
up,10,1360,-76.625,-14.750,41.000,-0.020,0.065,-0.883
up,10,1380,-81.375,13.563,77.438,-0.019,0.043,-0.872
up,10,1400,-56.250,7.000,76.375,-0.055,0.056,-0.826
up,10,1420,-27.312,-12.000,61.563,-0.128,0.050,-0.840
up,10,1440,-13.625,-25.437,38.063,-0.144,0.087,-0.777
up,10,1460,-11.000,-39.000,10.875,-0.147,0.169,-0.709
up,10,1480,-10.750,-51.875,-6.437,-0.144,0.254,-0.716
up,10,1500,-20.187,-58.000,1.687,-0.086,0.243,-0.792
up,10,1520,-18.375,-31.000,33.750,-0.081,0.180,-0.871
up,10,1540,-3.563,17.625,32.000,-0.212,0.250,-0.800
up,10,1560,6.125,10.813,14.188,-0.238,0.335,-0.642
up,10,1580,-11.813,-27.375,16.687,-0.138,0.297,-0.695
up,10,1600,-38.438,-16.750,62.813,-0.069,0.108,-0.851
up,10,1620,-58.063,19.562,90.875,-0.242,0.151,-0.833
up,10,1640,-70.813,13.375,71.875,-0.310,0.234,-0.875
up,10,1660,-58.125,21.125,36.313,-0.208,0.249,-0.982
up,10,1680,-35.063,-12.375,12.813,-0.153,0.284,-0.870
up,10,1700,-25.500,-66.500,19.125,-0.183,0.331,-1.043
up,10,1720,-33.750,-36.563,38.438,-0.226,0.339,-1.320
up,10,1740,-64.875,17.625,61.813,-0.266,0.338,-1.264
up,10,1760,-67.313,14.563,60.000,-0.348,0.323,-1.265
up,10,1780,-38.500,-4.750,32.625,-0.355,0.332,-1.379
up,10,1800,-4.250,-10.813,0.875,-0.327,0.369,-1.437
up,10,1820,5.750,-10.313,-13.750,-0.292,0.425,-1.407
up,10,1840,-2.438,-6.000,-3.125,-0.197,0.488,-1.371
up,10,1860,-16.312,12.000,38.938,-0.127,0.462,-1.311
up,10,1880,-37.813,45.875,69.188,-0.220,0.397,-1.250
up,10,1900,-41.625,47.000,56.438,-0.374,0.376,-1.253
up,10,1920,-16.500,14.500,22.875,-0.360,0.373,-1.316
up,10,1940,8.938,3.813,-0.250,-0.256,0.429,-1.308
up,10,1960,9.313,31.562,0.812,-0.148,0.463,-1.233
up,10,1980,12.563,43.813,12.625,-0.114,0.483,-1.110
up,10,2000,9.188,25.437,24.562,-0.150,0.485,-1.063
up,11,1,-1.250,0.000,2.500,-0.051,0.387,-0.964
up,11,20,-0.062,0.750,2.125,-0.051,0.385,-0.962
up,11,40,-2.375,1.687,0.937,-0.061,0.389,-0.949
up,11,60,-3.250,-0.250,-1.875,-0.072,0.393,-0.967
up,11,80,-0.500,-1.187,-4.500,-0.057,0.400,-0.985
up,11,100,-1.062,1.500,-3.250,-0.052,0.413,-0.966
up,11,120,-2.500,1.562,-1.500,-0.056,0.415,-0.963
up,11,140,-1.375,-1.062,-1.937,-0.050,0.414,-0.979
up,11,160,0.437,-3.563,-2.563,-0.046,0.413,-0.996
up,11,180,0.812,-6.062,-1.687,-0.062,0.420,-1.009
up,11,200,-1.250,-12.000,-0.437,-0.069,0.429,-1.031
up,11,220,-7.625,-25.812,3.438,-0.108,0.465,-1.079
up,11,240,-14.250,-48.750,4.875,-0.230,0.525,-1.261
up,11,260,-8.438,-61.688,-2.188,-0.409,0.580,-1.541
up,11,280,12.250,-66.625,-14.250,-0.478,0.590,-1.671
up,11,300,40.438,-64.438,-22.875,-0.597,0.655,-1.753
up,11,320,46.813,-46.688,-27.125,-0.601,0.632,-1.735
up,11,340,52.250,-28.625,-36.938,-0.502,0.576,-1.592
up,11,360,60.438,-30.375,-43.750,-0.383,0.501,-1.441
up,11,380,59.375,-28.875,-45.000,-0.303,0.446,-1.363
up,11,400,54.938,-28.125,-49.625,-0.258,0.397,-1.301
up,11,420,52.188,-29.562,-50.938,-0.244,0.380,-1.273
up,11,440,44.813,-20.375,-43.125,-0.204,0.353,-1.268
up,11,460,44.063,-8.375,-35.750,-0.166,0.292,-1.218
up,11,480,51.813,-4.875,-32.063,-0.169,0.257,-1.136
up,11,500,47.313,13.000,-21.937,-0.177,0.255,-1.124
up,11,520,37.563,53.813,-4.250,-0.112,0.219,-1.101
up,11,540,55.313,67.188,10.063,-0.127,0.159,-1.000
up,11,560,79.938,59.000,11.063,-0.228,0.136,-0.973
up,11,580,106.750,56.063,-4.312,-0.144,0.142,-0.895
up,11,600,100.813,57.188,-11.625,-0.094,0.242,-0.686
up,11,620,74.000,60.375,-20.937,-0.113,0.155,-0.653
up,11,640,78.750,46.813,-41.313,-0.080,0.104,-0.677
up,11,660,78.250,51.375,-55.938,-0.024,0.148,-0.632
up,11,680,59.500,73.000,-60.313,0.015,0.193,-0.515
up,11,700,47.563,70.688,-62.000,0.084,0.198,-0.525
up,11,720,50.938,75.938,-42.688,0.209,0.222,-0.552
up,11,740,44.375,94.688,-23.500,0.175,0.155,-0.569
up,11,760,41.438,98.938,-14.563,0.199,0.043,-0.564
up,11,780,38.375,93.438,-2.625,0.223,-0.026,-0.517
up,11,800,28.125,82.938,7.875,0.244,-0.092,-0.514
up,11,820,19.937,72.750,19.187,0.223,-0.213,-0.544
up,11,840,13.125,50.813,12.438,0.179,-0.289,-0.515
up,11,860,3.000,21.750,-3.625,0.155,-0.296,-0.548
up,11,880,-6.125,0.687,-16.125,0.139,-0.310,-0.653
up,11,900,-13.750,-7.562,-26.250,0.167,-0.279,-0.666
up,11,920,-22.187,-12.750,-33.313,0.172,-0.262,-0.707
up,11,940,-25.437,-21.187,-33.438,0.165,-0.211,-0.761
up,11,960,-24.437,-28.750,-22.000,0.052,-0.231,-0.932
up,11,980,-12.563,-32.375,-10.625,-0.075,-0.237,-1.014
up,11,1000,-5.062,-35.563,-7.125,-0.136,-0.275,-1.053
up,11,1020,-0.500,-29.250,-18.000,-0.067,-0.232,-0.956
up,11,1040,-9.438,-28.000,-20.562,-0.005,-0.201,-0.937
up,11,1060,-20.625,-14.875,-20.062,0.007,-0.197,-0.944
up,11,1080,-28.875,-3.563,-22.375,0.006,-0.175,-0.925
up,11,1100,-28.625,-4.687,-25.187,0.028,-0.150,-0.927
up,11,1120,-22.375,-16.000,-28.000,0.079,-0.123,-0.925
up,11,1140,-22.375,-11.500,-26.125,0.101,-0.105,-0.919
up,11,1160,-27.312,-2.500,-28.750,0.116,-0.091,-0.861
up,11,1180,-33.125,-6.062,-35.688,0.116,-0.036,-0.821
up,11,1200,-39.563,-10.438,-27.687,0.111,0.004,-0.860
up,11,1220,-37.875,-7.312,-18.875,0.139,-0.005,-0.875
up,11,1240,-30.750,-4.062,-20.250,0.152,0.024,-0.835
up,11,1260,-25.000,-9.375,-27.062,0.156,0.071,-0.801
up,11,1280,-26.187,-12.750,-21.375,0.123,0.135,-0.812
up,11,1300,-31.062,-11.063,3.188,0.118,0.160,-0.868
up,11,1320,-26.562,-4.687,35.125,0.133,0.087,-0.891
up,11,1340,-13.313,7.562,43.688,0.121,0.062,-0.792
up,11,1360,-2.688,5.250,28.000,0.068,0.085,-0.698
up,11,1380,1.937,-10.313,6.937,0.018,0.172,-0.663
up,11,1400,-22.875,-25.875,3.688,0.017,0.184,-0.734
up,11,1420,-38.938,-21.437,20.812,0.072,0.054,-0.816
up,11,1440,-21.062,3.438,38.063,0.069,0.058,-0.766
up,11,1460,-18.125,4.500,37.125,0.037,0.100,-0.686
up,11,1480,-18.250,-14.000,22.000,0.044,0.069,-0.664
up,11,1500,-17.437,-38.875,8.875,0.044,0.107,-0.659
up,11,1520,-24.687,-54.938,17.437,0.045,0.120,-0.792
up,11,1540,-37.875,-34.125,39.875,0.003,0.097,-0.902
up,11,1560,-43.250,-20.625,50.563,-0.034,0.061,-0.872
up,11,1580,-26.000,-38.875,48.625,-0.091,0.074,-0.787
up,11,1600,-40.438,-45.000,23.125,-0.127,0.164,-0.852
up,11,1620,-71.438,-48.625,-7.750,-0.113,0.171,-1.012
up,11,1640,-83.500,-44.250,-20.375,-0.086,0.192,-1.165
up,11,1660,-74.500,-26.875,-6.187,-0.059,0.227,-1.265
up,11,1680,-63.188,-5.750,6.000,-0.020,0.264,-1.281
up,11,1700,-53.563,-6.125,20.500,-0.057,0.228,-1.312
up,11,1720,-53.250,-3.688,28.875,-0.150,0.246,-1.343
up,11,1740,-65.688,-3.500,31.187,-0.243,0.300,-1.413
up,11,1760,-83.688,10.125,25.375,-0.263,0.317,-1.492
up,11,1780,-93.125,29.812,22.625,-0.227,0.366,-1.470
up,11,1800,-92.438,45.875,35.813,-0.179,0.399,-1.396
up,11,1820,-85.938,49.625,51.000,-0.191,0.504,-1.327
up,11,1840,-84.625,43.563,27.125,-0.215,0.550,-1.290
up,11,1860,-72.500,30.312,3.375,-0.170,0.573,-1.304
up,11,1880,-39.125,14.313,-33.688,-0.091,0.649,-1.274
up,11,1900,-6.625,9.563,-56.938,-0.025,0.710,-1.247
up,11,1920,17.750,8.250,-48.125,0.041,0.753,-1.190
up,11,1940,28.312,-2.938,-24.437,0.090,0.767,-1.105
up,11,1960,12.563,-1.500,0.875,0.064,0.710,-1.046
up,11,1980,0.000,-3.000,18.312,0.025,0.624,-1.005
up,11,2000,0.625,-8.688,26.500,-0.006,0.570,-1.002
up,12,0,-6.750,2.625,0.375,-0.049,0.423,-0.958
up,12,20,-7.312,2.938,0.437,-0.048,0.426,-0.974
up,12,40,-7.062,2.000,0.687,-0.048,0.437,-0.973
up,12,60,-7.687,1.062,0.250,-0.052,0.448,-0.982
up,12,80,-6.312,-0.187,-0.812,-0.055,0.462,-1.001
up,12,100,-2.313,-1.375,-2.313,-0.047,0.476,-1.004
up,12,120,-0.312,-2.063,-1.187,-0.041,0.487,-1.000
up,12,140,-2.625,-3.250,1.937,-0.035,0.493,-0.985
up,12,160,-4.187,-6.875,5.875,-0.025,0.500,-0.996
up,12,180,-6.000,-9.875,11.063,-0.021,0.511,-1.003
up,12,200,-9.625,-15.250,16.500,-0.053,0.524,-1.009
up,12,220,-13.813,-26.000,17.625,-0.108,0.533,-1.052
up,12,240,-16.375,-41.063,12.625,-0.191,0.564,-1.139
up,12,260,-18.125,-58.438,5.125,-0.293,0.614,-1.251
up,12,280,-20.000,-69.688,-3.750,-0.414,0.684,-1.448
up,12,300,-22.312,-64.188,-11.063,-0.554,0.754,-1.636
up,12,320,-20.062,-48.000,-16.625,-0.527,0.762,-1.694
up,12,340,-2.938,-28.250,-12.375,-0.448,0.771,-1.661
up,12,360,8.000,-12.563,-0.750,-0.350,0.728,-1.558
up,12,380,0.437,-0.125,8.688,-0.333,0.698,-1.433
up,12,400,-4.562,-2.500,9.813,-0.291,0.627,-1.354
up,12,420,-0.125,-11.938,0.562,-0.277,0.522,-1.309
up,12,440,12.750,-10.125,-14.625,-0.252,0.445,-1.242
up,12,460,24.562,-5.875,-42.125,-0.274,0.501,-1.124
up,12,480,29.875,-6.687,-63.500,-0.207,0.521,-1.072
up,12,500,35.438,17.312,-62.625,-0.125,0.515,-1.078
up,12,520,43.625,54.438,-54.063,-0.084,0.595,-0.920
up,12,540,40.625,75.750,-32.688,-0.076,0.639,-0.802
up,12,560,39.500,103.875,-13.375,-0.093,0.574,-0.770
up,12,580,50.625,105.063,-14.000,-0.071,0.581,-0.686
up,12,600,57.250,94.875,-3.313,0.067,0.606,-0.696
up,12,620,69.813,102.500,10.438,0.052,0.604,-0.665
up,12,640,77.750,101.188,4.750,0.015,0.516,-0.595
up,12,660,80.813,105.813,-10.313,0.092,0.429,-0.489
up,12,680,75.813,98.750,-7.000,0.178,0.417,-0.399
up,12,700,61.125,93.688,8.188,0.187,0.319,-0.466
up,12,720,67.063,82.625,10.688,0.231,0.240,-0.499
up,12,740,71.500,74.063,16.187,0.302,0.208,-0.468
up,12,760,58.125,76.688,36.563,0.263,0.132,-0.507
up,12,780,43.063,76.313,56.000,0.184,-0.038,-0.571
up,12,800,39.375,62.313,50.563,0.160,-0.144,-0.537
up,12,820,35.125,37.438,22.687,0.159,-0.174,-0.534
up,12,840,21.062,23.687,8.250,0.218,-0.177,-0.594
up,12,860,-4.312,32.375,12.063,0.167,-0.190,-0.700
up,12,880,-13.688,35.125,-2.750,0.108,-0.196,-0.752
up,12,900,-13.188,24.062,-28.062,0.136,-0.167,-0.771
up,12,920,-13.500,16.375,-42.063,0.189,-0.118,-0.825
up,12,940,-15.375,10.188,-39.313,0.197,-0.094,-0.868
up,12,960,-6.500,-11.188,-38.063,0.216,-0.070,-0.859
up,12,980,3.813,-41.563,-32.188,0.258,-0.013,-0.834
up,12,1000,-3.125,-41.000,-15.875,0.230,0.016,-0.893
up,12,1020,-9.250,-29.312,0.437,0.190,0.008,-0.899
up,12,1040,-12.438,-28.875,0.375,0.179,-0.000,-0.838
up,12,1060,-19.625,-31.375,-16.125,0.208,0.001,-0.778
up,12,1080,-34.250,-28.062,-25.250,0.152,0.054,-0.861
up,12,1100,-48.938,-1.437,-23.812,0.044,0.053,-0.970
up,12,1120,-42.938,10.875,-42.188,0.039,0.075,-0.896
up,12,1140,-22.750,-2.875,-78.313,0.140,0.125,-0.769
up,12,1160,-12.938,-20.562,-94.625,0.239,0.221,-0.721
up,12,1180,-23.562,-27.000,-63.313,0.286,0.310,-0.763
up,12,1200,-41.438,-13.438,-16.187,0.218,0.313,-0.867
up,12,1220,-31.125,9.500,8.188,0.158,0.290,-0.817
up,12,1240,-6.562,-5.562,4.562,0.158,0.307,-0.677
up,12,1260,-2.125,-25.312,2.750,0.147,0.341,-0.640
up,12,1280,-27.125,-26.750,27.375,0.164,0.320,-0.685
up,12,1300,-40.250,-5.375,44.375,0.146,0.275,-0.701
up,12,1320,-18.000,-9.313,20.312,0.104,0.269,-0.640
up,12,1340,12.438,-45.063,-3.188,0.058,0.318,-0.595
up,12,1360,5.375,-65.125,-2.500,0.058,0.333,-0.697
up,12,1380,-29.062,-33.125,33.688,0.138,0.168,-0.746
up,12,1400,-45.313,-16.437,51.938,0.040,0.124,-0.684
up,12,1420,-41.188,-27.687,17.437,-0.108,0.204,-0.722
up,12,1440,-32.375,-41.188,-20.687,-0.032,0.243,-0.792
up,12,1460,-37.625,-64.250,-30.125,0.057,0.229,-0.827
up,12,1480,-45.063,-90.375,-17.250,-0.000,0.313,-0.938
up,12,1500,-68.438,-60.875,4.062,-0.076,0.442,-1.116
up,12,1520,-89.500,-9.875,-4.750,-0.067,0.474,-1.200
up,12,1540,-55.125,-9.250,-16.250,0.024,0.375,-1.144
up,12,1560,8.500,-64.563,-14.625,0.080,0.401,-0.924
up,12,1580,-1.437,-69.875,-12.938,-0.035,0.585,-0.894
up,12,1600,-50.375,-50.625,-17.812,-0.144,0.696,-1.060
up,12,1620,-67.813,-43.875,-10.188,-0.065,0.689,-1.239
up,12,1640,-54.625,-15.500,28.375,0.065,0.653,-1.301
up,12,1660,-44.813,14.688,68.375,0.006,0.679,-1.154
up,12,1680,-67.063,23.312,76.125,-0.205,0.737,-1.108
up,12,1700,-87.375,14.000,61.938,-0.255,0.723,-1.217
up,12,1720,-71.313,10.250,39.313,-0.187,0.698,-1.310
up,12,1740,-52.375,2.625,36.500,-0.147,0.752,-1.264
up,12,1760,-56.063,8.625,37.063,-0.229,0.732,-1.305
up,12,1780,-45.000,23.687,30.062,-0.196,0.666,-1.274
up,12,1800,-19.562,15.438,25.500,-0.066,0.663,-1.112
up,12,1820,-10.438,-1.375,24.062,-0.006,0.715,-0.998
up,12,1840,-15.688,-6.437,8.875,-0.023,0.773,-1.016
up,12,1860,-8.375,-11.750,-6.250,0.005,0.822,-1.007
up,12,1880,9.000,-29.875,-10.313,0.014,0.845,-1.028
up,12,1900,22.625,-32.250,-16.750,0.013,0.838,-1.013
up,12,1920,29.687,-32.063,-14.750,0.022,0.826,-0.993
up,12,1940,24.062,-17.812,-4.437,0.023,0.790,-0.949
up,12,1960,12.813,-11.250,9.125,-0.006,0.742,-0.920
up,12,1980,6.000,-9.500,15.938,-0.044,0.691,-0.939
up,12,2000,6.812,-7.812,14.313,-0.062,0.640,-0.950
up,13,1,5.562,-1.375,-2.563,-0.093,0.579,-0.892
up,13,20,3.750,1.250,0.437,-0.093,0.569,-0.887
up,13,40,1.125,3.625,1.062,-0.094,0.560,-0.883
up,13,60,3.625,1.562,-1.562,-0.092,0.551,-0.878
up,13,80,3.250,0.125,-3.375,-0.086,0.557,-0.870
up,13,100,1.437,0.312,-3.625,-0.084,0.569,-0.874
up,13,120,2.000,-2.313,-2.500,-0.090,0.580,-0.889
up,13,140,2.625,-5.125,-4.000,-0.090,0.584,-0.887
up,13,160,1.437,-9.625,-5.250,-0.095,0.600,-0.900
up,13,180,-0.062,-17.125,-4.500,-0.110,0.636,-0.945
up,13,200,-5.437,-25.125,-1.187,-0.145,0.692,-1.028
up,13,220,-8.438,-30.687,2.063,-0.217,0.747,-1.154
up,13,240,-5.250,-42.875,-2.000,-0.366,0.816,-1.304
up,13,260,0.500,-55.625,-17.687,-0.526,0.907,-1.496
up,13,280,7.750,-55.063,-29.187,-0.560,0.969,-1.591
up,13,300,16.375,-42.313,-25.937,-0.548,0.958,-1.604
up,13,320,23.312,-16.750,-18.562,-0.479,0.894,-1.559
up,13,340,36.063,6.250,-13.875,-0.374,0.796,-1.404
up,13,360,45.000,3.188,-11.938,-0.299,0.704,-1.269
up,13,380,39.938,-1.937,-9.250,-0.239,0.657,-1.200
up,13,400,30.500,-9.125,-5.375,-0.186,0.629,-1.145
up,13,420,31.625,-11.313,-5.250,-0.135,0.574,-1.089
up,13,440,32.875,-13.125,-7.687,-0.133,0.574,-1.017
up,13,460,24.375,-2.688,1.437,-0.070,0.577,-1.001
up,13,480,16.312,27.187,20.000,-0.091,0.561,-1.031
up,13,500,22.312,51.938,25.812,-0.181,0.549,-1.003
up,13,520,23.812,59.250,27.625,-0.087,0.604,-0.903
up,13,540,7.062,94.688,68.375,0.031,0.544,-0.883
up,13,560,10.750,124.688,95.625,-0.059,0.454,-0.750
up,13,580,40.063,100.563,50.188,-0.052,0.450,-0.574
up,13,600,63.313,69.563,1.625,0.103,0.486,-0.487
up,13,620,59.063,56.750,1.500,0.185,0.475,-0.501
up,13,640,62.250,53.813,17.937,0.196,0.418,-0.530
up,13,660,70.375,52.563,21.812,0.169,0.299,-0.460
up,13,680,56.000,49.563,14.375,0.023,0.185,-0.442
up,13,700,49.750,38.375,-4.000,0.032,0.136,-0.526
up,13,720,40.438,43.625,-4.000,0.017,0.102,-0.654
up,13,740,29.937,70.438,9.063,-0.082,-0.001,-0.800
up,13,760,35.438,81.688,2.563,-0.099,-0.082,-0.590
up,13,780,28.937,51.375,-48.938,0.036,-0.022,-0.440
up,13,800,15.813,29.375,-78.625,0.137,0.037,-0.660
up,13,820,14.625,16.000,-80.313,0.198,0.120,-0.686
up,13,840,8.563,-0.812,-72.625,0.230,0.205,-0.786
up,13,860,5.062,9.438,-55.125,0.151,0.222,-0.937
up,13,880,7.000,13.500,-45.813,0.131,0.221,-0.890
up,13,900,3.313,14.375,-35.938,0.152,0.199,-0.863
up,13,920,-3.938,19.937,-23.312,0.126,0.186,-0.905
up,13,940,-7.000,25.187,-13.750,0.116,0.159,-0.881
up,13,960,-4.375,10.625,-13.500,0.153,0.133,-0.813
up,13,980,-7.187,-3.563,-13.688,0.113,0.160,-0.906
up,13,1000,-6.000,-4.000,-10.438,0.069,0.169,-0.977
up,13,1020,-0.500,-12.500,-15.313,0.086,0.172,-0.905
up,13,1040,-2.250,-21.062,-21.812,0.102,0.206,-0.922
up,13,1060,-5.687,-15.563,-18.312,0.084,0.240,-0.991
up,13,1080,-5.187,-14.875,-14.750,0.106,0.271,-0.941
up,13,1100,-7.625,-17.000,-16.750,0.140,0.298,-0.898
up,13,1120,-11.875,-17.250,-18.000,0.157,0.318,-0.917
up,13,1140,-15.938,-12.500,-13.063,0.152,0.321,-0.913
up,13,1160,-16.937,-10.188,-10.063,0.156,0.327,-0.881
up,13,1180,-15.563,-8.063,-10.000,0.172,0.332,-0.822
up,13,1200,-20.812,-14.688,-5.625,0.188,0.317,-0.776
up,13,1220,-29.562,-12.375,8.375,0.146,0.312,-0.853
up,13,1240,-29.562,-0.062,20.750,0.091,0.308,-0.895
up,13,1260,-17.812,1.187,19.375,0.070,0.267,-0.852
up,13,1280,-2.938,-16.062,8.688,0.064,0.250,-0.788
up,13,1300,-3.500,-32.063,8.313,0.053,0.283,-0.791
up,13,1320,-13.625,-34.250,16.937,0.042,0.316,-0.810
up,13,1340,-22.500,-43.125,32.188,0.007,0.322,-0.858
up,13,1360,-22.125,-45.063,48.750,-0.021,0.282,-0.937
up,13,1380,-14.188,-28.562,46.125,-0.047,0.251,-0.941
up,13,1400,7.562,-28.125,22.562,-0.039,0.242,-0.854
up,13,1420,16.750,-42.563,-3.500,-0.015,0.252,-0.775
up,13,1440,15.563,-44.750,-24.187,-0.042,0.327,-0.815
up,13,1460,16.250,-39.438,-27.312,-0.039,0.391,-0.889
up,13,1480,11.063,-28.562,-6.062,0.010,0.362,-0.920
up,13,1500,5.375,-11.000,9.500,0.019,0.338,-0.848
up,13,1520,2.563,-5.562,6.062,-0.029,0.377,-0.777
up,13,1540,-1.500,-7.937,-3.688,-0.031,0.388,-0.784
up,13,1560,-9.750,-11.063,-2.938,0.057,0.290,-0.775
up,13,1580,-16.062,-18.500,10.500,0.064,0.266,-0.728
up,13,1600,-24.000,-21.187,19.562,-0.016,0.348,-0.727
up,13,1620,-35.000,-10.563,27.687,-0.056,0.431,-0.781
up,13,1640,-42.250,0.875,34.188,-0.029,0.408,-0.831
up,13,1660,-42.125,-4.062,35.938,-0.027,0.374,-0.839
up,13,1680,-54.125,-2.125,33.750,-0.020,0.378,-0.863
up,13,1700,-62.000,-5.437,25.062,-0.048,0.431,-0.931
up,13,1720,-46.188,-24.062,3.375,-0.047,0.481,-1.028
up,13,1740,-23.875,-34.688,-11.813,-0.042,0.500,-1.125
up,13,1760,-1.375,-38.000,-22.312,-0.004,0.516,-1.133
up,13,1780,-1.062,-39.625,-19.687,-0.056,0.581,-1.094
up,13,1800,-23.125,-28.812,-9.938,-0.057,0.604,-1.157
up,13,1820,-36.938,-9.250,3.438,-0.043,0.569,-1.190
up,13,1840,-35.688,-14.313,14.000,-0.063,0.579,-1.149
up,13,1860,-42.188,-19.750,25.312,-0.134,0.637,-1.182
up,13,1880,-54.688,-8.000,34.125,-0.228,0.691,-1.235
up,13,1900,-63.688,1.812,30.687,-0.279,0.715,-1.300
up,13,1920,-49.875,6.312,24.937,-0.212,0.701,-1.302
up,13,1940,-27.125,9.813,22.937,-0.169,0.724,-1.250
up,13,1960,-12.000,16.687,16.250,-0.177,0.719,-1.162
up,13,1980,-1.750,7.750,6.937,-0.193,0.723,-1.081
up,13,2000,-2.500,1.375,4.937,-0.165,0.718,-1.080
up,14,1,0.000,1.687,-0.750,-0.053,0.539,-0.897
up,14,20,0.937,0.937,-0.500,-0.053,0.540,-0.905
up,14,40,0.812,1.000,-0.812,-0.056,0.543,-0.903
up,14,60,1.812,-0.687,-1.250,-0.052,0.542,-0.908
up,14,80,2.625,-0.812,-1.437,-0.056,0.543,-0.910
up,14,100,2.313,-1.687,0.000,-0.058,0.547,-0.911
up,14,120,0.875,-1.437,0.750,-0.062,0.543,-0.921
up,14,140,1.937,-2.938,-0.812,-0.071,0.539,-0.927
up,14,160,3.375,-6.625,-2.750,-0.073,0.540,-0.933
up,14,180,2.250,-8.188,-2.625,-0.075,0.543,-0.938
up,14,200,0.875,-11.813,-2.375,-0.095,0.544,-0.967
up,14,220,3.125,-19.062,-7.125,-0.130,0.540,-1.008
up,14,240,4.062,-26.625,-12.938,-0.175,0.559,-1.052
up,14,260,1.812,-31.562,-15.938,-0.247,0.595,-1.148
up,14,280,5.750,-34.750,-20.250,-0.334,0.617,-1.292
up,14,300,21.687,-36.313,-30.687,-0.440,0.630,-1.396
up,14,320,40.813,-39.563,-45.438,-0.514,0.621,-1.448
up,14,340,63.375,-49.938,-60.813,-0.510,0.641,-1.467
up,14,360,68.313,-46.063,-64.000,-0.479,0.655,-1.458
up,14,380,60.625,-33.063,-54.125,-0.435,0.610,-1.452
up,14,400,53.313,-18.437,-40.313,-0.386,0.538,-1.437
up,14,420,57.313,-5.500,-32.438,-0.318,0.465,-1.368
up,14,440,66.125,-3.313,-36.688,-0.310,0.435,-1.252
up,14,460,63.063,-10.125,-63.813,-0.290,0.425,-1.196
up,14,480,50.313,-5.750,-55.000,-0.196,0.425,-1.180
up,14,500,37.563,7.250,-45.125,-0.149,0.480,-1.108
up,14,520,34.438,11.750,-36.313,-0.163,0.469,-1.052
up,14,540,50.125,12.313,-48.313,-0.150,0.462,-1.016
up,14,560,66.813,17.687,-53.938,-0.104,0.491,-0.992
up,14,580,69.938,34.313,-41.500,-0.051,0.436,-0.917
up,14,600,68.188,41.313,-33.688,-0.100,0.401,-0.815
up,14,620,64.000,32.813,-36.000,-0.128,0.408,-0.766
up,14,640,51.375,35.563,-22.937,-0.105,0.373,-0.814
up,14,660,41.125,47.563,-3.250,-0.093,0.267,-0.822
up,14,680,44.500,52.563,5.875,-0.130,0.202,-0.814
up,14,700,47.250,58.688,7.687,-0.193,0.179,-0.771
up,14,720,29.750,67.188,10.063,-0.197,0.145,-0.731
up,14,740,25.687,74.875,7.875,-0.197,0.055,-0.743
up,14,760,36.188,72.563,-4.062,-0.133,0.111,-0.667
up,14,780,31.250,68.375,-6.250,0.004,0.127,-0.616
up,14,800,23.812,68.875,0.312,0.030,0.055,-0.667
up,14,820,20.312,76.438,8.938,-0.001,0.006,-0.725
up,14,840,16.312,80.563,16.000,0.033,-0.029,-0.679
up,14,860,17.625,64.375,7.750,0.045,-0.088,-0.645
up,14,880,11.250,53.000,0.062,0.053,-0.167,-0.716
up,14,900,-1.562,58.750,5.875,0.074,-0.157,-0.716
up,14,920,-8.063,58.563,0.000,0.074,-0.103,-0.735
up,14,940,3.250,40.063,-15.625,0.058,-0.137,-0.796
up,14,960,3.125,29.625,-21.937,0.144,-0.099,-0.765
up,14,980,-6.187,32.438,-6.625,0.239,-0.088,-0.774
up,14,1000,-6.937,32.250,6.375,0.202,-0.116,-0.801
up,14,1020,-0.750,12.313,11.625,0.229,-0.096,-0.795
up,14,1040,0.000,6.125,25.312,0.254,-0.121,-0.794
up,14,1060,-4.062,3.750,30.750,0.214,-0.161,-0.775
up,14,1080,-10.000,-6.125,25.625,0.163,-0.175,-0.802
up,14,1100,-15.500,-9.688,16.437,0.103,-0.166,-0.857
up,14,1120,-21.062,-7.437,8.750,0.027,-0.138,-0.917
up,14,1140,-28.812,-1.625,-2.063,-0.017,-0.114,-0.963
up,14,1160,-32.875,-3.000,-15.438,0.042,-0.066,-0.920
up,14,1180,-35.125,-10.500,-22.812,0.128,-0.012,-0.863
up,14,1200,-46.938,-10.750,-21.375,0.142,0.038,-0.902
up,14,1220,-49.875,-3.750,-14.375,0.118,0.040,-0.956
up,14,1240,-39.875,-3.875,-13.563,0.113,0.085,-0.885
up,14,1260,-31.625,-10.000,-20.812,0.133,0.099,-0.853
up,14,1280,-29.187,-10.938,-25.812,0.142,0.104,-0.848
up,14,1300,-29.437,-11.375,-16.750,0.139,0.164,-0.797
up,14,1320,-32.563,-10.688,-4.937,0.143,0.224,-0.761
up,14,1340,-31.625,-9.688,7.750,0.123,0.302,-0.762
up,14,1360,-36.438,-10.750,19.250,0.099,0.291,-0.850
up,14,1380,-35.688,-4.250,36.000,0.125,0.163,-0.894
up,14,1400,-26.625,2.750,44.313,0.115,0.123,-0.846
up,14,1420,-15.750,-2.313,26.750,0.069,0.129,-0.808
up,14,1440,-3.938,-13.313,-5.187,0.052,0.139,-0.808
up,14,1460,2.000,-22.125,-25.250,0.085,0.140,-0.811
up,14,1480,1.000,-21.187,-22.875,0.093,0.148,-0.832
up,14,1500,-2.813,-21.250,-3.063,0.069,0.187,-0.841
up,14,1520,-6.000,-11.688,13.063,0.017,0.174,-0.885
up,14,1540,1.687,0.062,8.063,-0.009,0.167,-0.869
up,14,1560,14.063,-0.750,-1.750,0.045,0.183,-0.842
up,14,1580,21.750,-3.063,3.125,0.142,0.163,-0.791
up,14,1600,14.938,-6.062,14.250,0.140,0.168,-0.734
up,14,1620,-1.750,-15.938,16.500,0.097,0.190,-0.745
up,14,1640,-9.813,-31.937,21.062,0.085,0.201,-0.818
up,14,1660,-30.687,4.562,30.500,0.156,0.169,-0.860
up,14,1680,-39.250,15.438,30.250,0.142,0.093,-0.841
up,14,1700,-36.750,-26.312,15.688,0.043,0.119,-0.826
up,14,1720,-51.500,-63.250,-0.312,-0.047,0.228,-0.964
up,14,1740,-73.688,-33.188,-5.187,0.012,0.270,-1.095
up,14,1760,-73.250,-24.312,4.750,0.059,0.273,-1.048
up,14,1780,-77.125,-49.438,21.625,-0.015,0.350,-1.068
up,14,1800,-100.500,-50.375,31.875,-0.150,0.466,-1.217
up,14,1820,-121.313,-28.625,30.500,-0.259,0.552,-1.355
up,14,1840,-106.938,-5.875,25.312,-0.206,0.588,-1.416
up,14,1860,-72.750,-0.875,16.937,-0.192,0.653,-1.352
up,14,1880,-62.625,-9.563,10.125,-0.221,0.733,-1.335
up,14,1900,-69.563,-3.625,9.063,-0.203,0.767,-1.374
up,14,1920,-62.625,6.687,8.500,-0.139,0.756,-1.394
up,14,1940,-34.313,7.625,14.688,-0.073,0.737,-1.358
up,14,1960,-12.375,5.125,12.250,-0.094,0.727,-1.279
up,14,1980,-0.187,-1.687,5.312,-0.091,0.700,-1.194
up,14,2000,6.875,-11.250,6.125,-0.074,0.692,-1.092
up,15,1,-1.250,2.063,1.000,-0.015,0.488,-0.908
up,15,21,-1.437,0.437,0.312,-0.016,0.490,-0.915
up,15,40,-0.687,-0.500,-0.187,-0.014,0.494,-0.919
up,15,60,0.750,-0.562,-1.062,-0.023,0.497,-0.925
up,15,80,0.875,-1.937,-2.813,-0.032,0.504,-0.920
up,15,100,-0.812,-3.438,-4.562,-0.026,0.517,-0.941
up,15,120,-0.437,-2.563,-3.438,-0.021,0.526,-0.959
up,15,140,0.250,-3.438,-0.812,-0.021,0.537,-0.956
up,15,160,-0.312,-4.000,1.562,-0.027,0.539,-0.974
up,15,180,-0.437,-3.500,2.250,-0.032,0.543,-0.997
up,15,200,1.000,-7.437,0.687,-0.024,0.548,-1.001
up,15,220,3.875,-14.688,-0.562,-0.018,0.555,-1.005
up,15,240,4.562,-20.812,1.000,-0.033,0.583,-1.025
up,15,260,2.563,-22.000,4.312,-0.050,0.600,-1.062
up,15,280,6.562,-26.750,2.688,-0.083,0.583,-1.086
up,15,300,18.875,-39.000,-7.062,-0.135,0.577,-1.105
up,15,320,35.375,-54.438,-25.375,-0.200,0.589,-1.137
up,15,340,40.750,-63.125,-37.250,-0.224,0.634,-1.166
up,15,360,31.687,-61.688,-33.313,-0.253,0.665,-1.212
up,15,380,21.250,-56.875,-26.500,-0.306,0.664,-1.286
up,15,400,26.562,-49.750,-24.312,-0.323,0.618,-1.370
up,15,420,44.813,-36.250,-24.062,-0.325,0.581,-1.391
up,15,440,52.063,-26.062,-17.187,-0.340,0.552,-1.361
up,15,460,47.188,-11.688,-6.375,-0.350,0.489,-1.345
up,15,480,42.563,5.875,2.250,-0.304,0.393,-1.310
up,15,500,42.563,13.750,8.313,-0.255,0.345,-1.229
up,15,520,35.438,15.063,13.563,-0.274,0.311,-1.215
up,15,540,33.938,14.750,5.875,-0.281,0.267,-1.221
up,15,560,40.313,14.813,-3.625,-0.251,0.250,-1.170
up,15,580,41.313,23.437,-10.563,-0.210,0.270,-1.079
up,15,600,35.813,31.937,-19.437,-0.183,0.302,-0.984
up,15,620,35.063,27.250,-24.937,-0.129,0.351,-0.900
up,15,640,17.812,30.187,-4.875,-0.044,0.386,-0.841
up,15,660,-6.687,46.250,23.937,0.007,0.360,-0.818
up,15,680,-22.187,62.438,42.375,0.015,0.364,-0.755
up,15,700,-40.438,63.375,56.625,-0.042,0.402,-0.768
up,15,720,-63.688,76.625,86.938,-0.093,0.372,-0.904
up,15,740,-59.688,91.313,93.688,-0.152,0.278,-1.008
up,15,760,-13.375,84.500,49.375,-0.259,0.203,-0.994
up,15,780,30.937,65.250,-25.812,-0.208,0.291,-0.818
up,15,800,30.375,47.688,-54.875,-0.108,0.346,-0.762
up,15,820,30.812,40.625,-47.063,0.081,0.393,-0.702
up,15,840,46.563,34.875,-30.312,0.147,0.369,-0.666
up,15,860,56.250,32.313,-35.750,0.155,0.349,-0.555
up,15,880,43.750,28.312,-49.250,0.132,0.351,-0.523
up,15,900,32.875,19.937,-55.625,0.165,0.339,-0.661
up,15,920,36.188,27.187,-41.688,0.227,0.330,-0.765
up,15,940,41.625,39.750,-22.875,0.253,0.300,-0.673
up,15,960,33.938,38.750,2.688,0.265,0.223,-0.619
up,15,980,13.875,45.000,28.250,0.133,0.075,-0.759
up,15,1000,12.875,47.688,19.875,0.021,-0.014,-0.769
up,15,1020,18.375,28.500,-2.188,0.040,-0.013,-0.772
up,15,1040,11.438,21.500,-10.188,0.107,0.015,-0.816
up,15,1060,-1.375,31.750,2.625,0.118,0.029,-0.879
up,15,1080,-7.625,36.438,2.500,0.064,0.019,-0.919
up,15,1100,0.250,21.562,-20.875,0.069,0.034,-0.901
up,15,1120,5.875,4.000,-36.688,0.180,0.082,-0.879
up,15,1140,-1.875,5.375,-24.125,0.197,0.091,-0.917
up,15,1160,-4.187,3.688,-15.500,0.167,0.103,-0.883
up,15,1180,-6.062,-2.000,-13.188,0.174,0.108,-0.878
up,15,1200,-3.938,-4.500,-16.750,0.213,0.108,-0.817
up,15,1220,-10.688,-1.062,-14.063,0.227,0.116,-0.804
up,15,1240,-18.187,10.500,-11.563,0.210,0.092,-0.792
up,15,1260,-24.875,11.313,-21.437,0.199,0.097,-0.687
up,15,1280,-37.875,-1.937,-29.187,0.199,0.115,-0.649
up,15,1300,-50.625,-4.250,-26.750,0.192,0.148,-0.660
up,15,1320,-67.688,1.562,-15.125,0.160,0.191,-0.690
up,15,1340,-77.188,13.188,-3.250,0.157,0.220,-0.696
up,15,1360,-75.875,15.313,-4.812,0.155,0.231,-0.692
up,15,1380,-71.125,4.750,-16.750,0.143,0.242,-0.649
up,15,1400,-42.563,-19.750,-31.750,0.141,0.322,-0.630
up,15,1420,-22.062,-42.125,-33.313,0.116,0.449,-0.697
up,15,1440,-25.812,-51.438,-17.437,0.152,0.420,-0.792
up,15,1460,-20.562,-40.313,6.875,0.109,0.336,-0.767
up,15,1480,5.000,-39.688,18.625,0.039,0.385,-0.640
up,15,1500,32.438,-59.750,8.938,-0.008,0.424,-0.610
up,15,1520,37.250,-64.000,-5.187,0.039,0.342,-0.650
up,15,1540,29.875,-57.563,-3.438,0.102,0.253,-0.653
up,15,1560,14.813,-43.625,16.562,0.089,0.265,-0.668
up,15,1580,-5.437,-19.937,16.687,-0.072,0.359,-0.762
up,15,1600,-7.250,-31.187,0.500,-0.059,0.300,-0.822
up,15,1620,8.125,-25.812,5.437,0.072,0.272,-0.830
up,15,1640,1.875,-26.000,-5.937,0.120,0.262,-0.782
up,15,1660,-30.937,-26.812,-8.250,-0.010,0.314,-0.821
up,15,1680,-61.063,-39.875,-12.063,-0.021,0.360,-0.962
up,15,1700,-69.750,-50.063,-23.437,0.020,0.434,-1.185
up,15,1720,-75.813,-30.437,-2.750,-0.042,0.494,-1.336
up,15,1740,-89.500,6.562,21.000,-0.025,0.494,-1.304
up,15,1760,-94.063,19.062,31.437,-0.022,0.530,-1.211
up,15,1780,-98.375,6.500,32.625,-0.090,0.658,-1.200
up,15,1800,-104.125,7.437,37.375,-0.145,0.785,-1.270
up,15,1820,-101.750,26.750,32.688,-0.146,0.823,-1.299
up,15,1840,-76.750,32.375,16.250,-0.091,0.841,-1.196
up,15,1860,-50.063,5.750,-8.250,-0.102,0.974,-1.138
up,15,1880,-33.688,-22.750,-26.250,-0.068,1.052,-1.177
up,15,1900,-21.250,-32.250,-29.312,-0.021,1.085,-1.232
up,15,1920,-12.313,-23.312,-9.875,-0.024,1.043,-1.229
up,15,1940,-4.437,-19.625,1.187,-0.071,0.986,-1.189
up,15,1960,10.500,-21.562,16.187,-0.106,0.917,-1.161
up,15,1980,25.937,-20.062,10.938,-0.136,0.866,-1.096
up,15,2000,36.250,-23.062,7.500,-0.124,0.791,-1.012
up,16,1,1.812,3.250,-0.312,-0.043,0.534,-0.898
up,16,21,0.875,3.938,-1.062,-0.040,0.530,-0.884
up,16,40,-1.562,3.375,-1.500,-0.033,0.535,-0.871
up,16,60,-2.250,0.875,-1.500,-0.032,0.541,-0.883
up,16,80,-2.938,-1.812,-2.875,-0.042,0.557,-0.896
up,16,100,-3.875,-5.375,-5.875,-0.042,0.576,-0.917
up,16,120,-1.187,-9.313,-5.812,-0.029,0.595,-0.939
up,16,140,-2.125,-13.563,-0.875,-0.018,0.621,-0.943
up,16,160,-10.563,-19.875,5.562,-0.038,0.652,-0.973
up,16,180,-12.313,-28.500,7.937,-0.064,0.666,-1.016
up,16,200,-7.312,-45.063,7.375,-0.118,0.699,-1.067
up,16,220,-1.562,-57.313,5.500,-0.190,0.724,-1.136
up,16,240,8.000,-63.813,1.750,-0.278,0.751,-1.206
up,16,260,13.125,-63.688,-4.687,-0.371,0.775,-1.261
up,16,280,19.000,-65.688,-15.688,-0.448,0.786,-1.333
up,16,300,26.687,-61.625,-24.500,-0.497,0.783,-1.414
up,16,320,30.125,-44.938,-27.062,-0.527,0.780,-1.469
up,16,340,34.313,-20.437,-30.437,-0.490,0.744,-1.451
up,16,360,50.500,-4.687,-38.063,-0.437,0.680,-1.377
up,16,380,64.625,0.875,-47.563,-0.342,0.620,-1.272
up,16,400,59.750,10.250,-42.000,-0.231,0.586,-1.197
up,16,420,42.625,24.500,-11.563,-0.136,0.574,-1.114
up,16,440,20.000,32.313,19.125,-0.125,0.578,-1.057
up,16,460,4.937,28.875,40.375,-0.105,0.559,-1.021
up,16,480,2.375,20.875,58.063,-0.032,0.557,-0.999
up,16,500,1.125,19.312,90.688,-0.062,0.569,-1.007
up,16,520,9.813,19.312,114.938,-0.055,0.523,-1.003
up,16,540,20.125,13.063,119.875,-0.083,0.486,-0.979
up,16,560,25.500,30.250,105.688,-0.092,0.386,-0.973
up,16,580,48.813,43.688,57.000,-0.172,0.314,-0.908
up,16,600,62.250,35.438,-1.812,-0.124,0.353,-0.829
up,16,620,50.750,53.938,-7.187,0.015,0.362,-0.822
up,16,640,38.375,79.688,4.500,0.022,0.377,-0.739
up,16,660,38.375,72.938,-2.875,-0.008,0.387,-0.723
up,16,680,46.438,67.125,-18.937,0.002,0.387,-0.748
up,16,700,47.000,75.625,-18.375,0.078,0.427,-0.666
up,16,720,44.500,90.375,-1.687,0.152,0.409,-0.579
up,16,740,54.000,93.938,-6.250,0.128,0.353,-0.533
up,16,760,68.125,81.125,-18.250,0.201,0.288,-0.496
up,16,780,72.250,76.625,-8.813,0.278,0.265,-0.521
up,16,800,61.813,72.375,14.250,0.218,0.225,-0.573
up,16,820,60.188,58.063,29.687,0.219,0.126,-0.583
up,16,840,59.313,45.750,34.188,0.234,0.045,-0.535
up,16,860,34.875,36.875,36.625,0.210,-0.026,-0.570
up,16,880,12.813,35.375,33.438,0.131,-0.125,-0.689
up,16,900,5.625,25.312,15.438,0.057,-0.136,-0.727
up,16,920,1.312,10.500,-15.375,0.044,-0.112,-0.799
up,16,940,-2.438,4.312,-38.063,0.083,-0.075,-0.838
up,16,960,-9.250,4.312,-46.000,0.132,-0.027,-0.868
up,16,980,-8.750,1.937,-48.750,0.191,0.016,-0.839
up,16,1000,-10.063,-8.250,-51.438,0.231,0.070,-0.819
up,16,1020,-13.188,-9.563,-48.438,0.239,0.077,-0.862
up,16,1040,-17.625,-3.875,-42.438,0.224,0.077,-0.837
up,16,1060,-33.188,8.188,-45.688,0.164,0.080,-0.845
up,16,1080,-41.000,11.875,-61.000,0.147,0.106,-0.832
up,16,1100,-42.938,6.937,-68.125,0.174,0.146,-0.844
up,16,1120,-47.500,7.937,-56.938,0.200,0.167,-0.868
up,16,1140,-48.750,10.125,-39.000,0.206,0.171,-0.866
up,16,1160,-31.937,-5.625,-33.375,0.198,0.191,-0.850
up,16,1180,-23.937,-16.312,-37.063,0.203,0.226,-0.852
up,16,1200,-32.375,-11.063,-30.250,0.201,0.274,-0.885
up,16,1220,-46.188,-1.500,-13.875,0.154,0.291,-0.924
up,16,1240,-37.250,-4.750,-16.187,0.165,0.271,-0.886
up,16,1260,-18.375,-21.687,-27.937,0.177,0.307,-0.829
up,16,1280,-19.687,-31.625,-30.687,0.152,0.352,-0.900
up,16,1300,-31.625,-16.500,-21.250,0.140,0.347,-1.011
up,16,1320,-24.000,-2.938,-21.187,0.143,0.353,-0.946
up,16,1340,4.000,-12.750,-30.500,0.189,0.386,-0.854
up,16,1360,28.812,-20.812,-45.188,0.208,0.433,-0.782
up,16,1380,18.062,-23.875,-39.813,0.226,0.468,-0.702
up,16,1400,-6.687,-17.625,-21.812,0.210,0.475,-0.742
up,16,1420,-21.937,8.813,1.437,0.171,0.493,-0.747
up,16,1440,-15.625,6.687,22.250,0.177,0.479,-0.625
up,16,1460,-17.937,-13.750,32.063,0.165,0.400,-0.533
up,16,1480,-40.438,-14.688,34.938,0.112,0.355,-0.605
up,16,1500,-65.438,2.938,42.625,0.059,0.324,-0.674
up,16,1520,-58.688,-1.625,36.250,0.028,0.316,-0.695
up,16,1540,-19.500,-28.125,5.437,0.050,0.305,-0.678
up,16,1560,1.875,-55.625,-6.312,0.063,0.310,-0.599
up,16,1580,-20.500,-48.500,0.750,0.115,0.300,-0.575
up,16,1600,-49.563,-51.875,-7.125,0.048,0.355,-0.714
up,16,1620,-55.500,-55.688,-17.687,0.030,0.417,-0.873
up,16,1640,-46.625,-55.813,-9.813,0.085,0.439,-0.919
up,16,1660,-45.813,-40.000,17.812,0.073,0.447,-0.867
up,16,1680,-39.250,-49.125,-4.375,-0.047,0.528,-0.895
up,16,1700,-18.750,-84.875,-36.875,-0.098,0.603,-0.999
up,16,1720,-14.500,-89.625,-47.250,-0.017,0.744,-1.128
up,16,1740,-38.000,-44.750,-10.375,0.135,0.813,-1.165
up,16,1760,-62.938,-1.750,24.687,0.100,0.794,-1.114
up,16,1780,-85.188,7.812,43.625,-0.045,0.791,-1.141
up,16,1800,-92.938,10.188,41.250,-0.130,0.878,-1.285
up,16,1820,-86.438,15.688,32.063,-0.116,0.971,-1.408
up,16,1840,-58.500,31.625,25.312,-0.045,0.925,-1.453
up,16,1860,-12.938,39.375,29.812,-0.061,0.924,-1.345
up,16,1880,17.437,29.062,17.750,-0.132,0.941,-1.295
up,16,1900,29.562,29.375,2.688,-0.091,0.889,-1.204
up,16,1920,28.625,29.375,-0.875,-0.008,0.853,-1.066
up,16,1940,22.062,26.000,8.063,0.040,0.800,-1.001
up,16,1960,21.125,23.062,12.875,0.045,0.761,-0.962
up,16,1980,21.000,10.188,9.625,0.022,0.716,-0.937
up,16,2000,22.375,4.125,-0.500,0.013,0.679,-0.935
up,17,1,-1.812,0.062,-0.125,0.014,0.599,-0.877
up,17,21,-2.063,1.750,0.875,0.013,0.598,-0.880
up,17,40,-1.437,1.562,0.062,0.007,0.599,-0.878
up,17,60,-0.062,-0.375,-1.062,0.010,0.604,-0.879
up,17,80,-1.562,0.250,-2.063,0.008,0.611,-0.887
up,17,100,0.187,0.062,-0.875,0.013,0.619,-0.901
up,17,120,2.188,0.500,-1.187,0.015,0.625,-0.896
up,17,140,2.813,-0.937,-1.000,0.017,0.631,-0.904
up,17,160,3.188,-0.500,0.062,0.014,0.630,-0.908
up,17,180,4.000,-1.937,1.375,0.014,0.630,-0.912
up,17,200,4.562,-5.062,2.188,0.021,0.631,-0.919
up,17,220,4.187,-9.188,2.625,0.018,0.647,-0.937
up,17,240,4.250,-14.375,3.875,0.019,0.670,-0.966
up,17,260,2.313,-19.250,7.187,-0.009,0.695,-1.004
up,17,280,-0.875,-25.000,8.375,-0.060,0.714,-1.071
up,17,300,0.875,-32.063,8.750,-0.107,0.742,-1.160
up,17,320,4.875,-36.313,5.125,-0.201,0.762,-1.263
up,17,340,15.313,-40.375,-10.500,-0.315,0.762,-1.410
up,17,360,35.875,-42.438,-32.875,-0.356,0.774,-1.537
up,17,380,55.625,-34.188,-46.000,-0.331,0.812,-1.546
up,17,400,69.063,-28.062,-45.188,-0.270,0.827,-1.479
up,17,420,68.938,-13.563,-31.812,-0.195,0.802,-1.358
up,17,440,48.875,-8.500,-8.063,-0.177,0.763,-1.227
up,17,460,20.750,-6.937,15.563,-0.192,0.695,-1.213
up,17,480,10.188,-8.000,23.312,-0.158,0.607,-1.218
up,17,500,10.188,-12.500,19.750,-0.108,0.593,-1.159
up,17,520,5.875,-3.688,18.000,-0.064,0.577,-1.115
up,17,540,9.688,-1.750,9.875,-0.066,0.550,-1.084
up,17,560,26.625,1.625,-4.062,0.028,0.488,-1.039
up,17,580,30.937,23.937,-8.375,0.040,0.500,-0.978
up,17,600,26.625,49.125,-15.125,0.073,0.444,-0.921
up,17,620,17.125,76.813,-34.188,0.025,0.409,-0.813
up,17,640,14.375,70.938,-41.125,0.046,0.446,-0.760
up,17,660,25.937,42.750,-10.813,0.095,0.446,-0.815
up,17,680,19.250,55.000,17.250,0.025,0.413,-0.801
up,17,700,7.750,67.000,33.063,-0.040,0.411,-0.703
up,17,720,10.625,62.313,27.500,-0.027,0.347,-0.656
up,17,740,25.250,55.375,3.438,-0.047,0.370,-0.584
up,17,760,29.437,56.750,-15.500,-0.002,0.392,-0.551
up,17,780,17.687,67.250,-11.813,0.038,0.339,-0.518
up,17,800,11.000,65.563,-1.562,0.053,0.341,-0.498
up,17,820,14.438,66.813,0.937,0.079,0.302,-0.550
up,17,840,19.125,70.188,-1.312,0.097,0.275,-0.515
up,17,860,-1.000,68.000,22.625,0.145,0.213,-0.569
up,17,880,-25.312,86.500,73.750,0.126,0.077,-0.679
up,17,900,-20.312,93.688,75.750,0.035,-0.030,-0.569
up,17,920,-6.000,62.875,13.063,0.018,-0.017,-0.570
up,17,940,10.000,30.812,-49.625,0.116,0.098,-0.686
up,17,960,12.625,23.875,-72.188,0.204,0.188,-0.802
up,17,980,11.375,29.937,-73.000,0.244,0.253,-0.811
up,17,1000,13.438,17.937,-69.813,0.296,0.310,-0.790
up,17,1020,11.813,11.063,-58.563,0.351,0.313,-0.817
up,17,1040,10.938,1.625,-43.000,0.418,0.307,-0.750
up,17,1060,0.250,-11.063,-11.000,0.414,0.317,-0.749
up,17,1080,-11.188,-8.688,13.500,0.328,0.268,-0.801
up,17,1100,-10.125,-15.000,10.813,0.271,0.211,-0.783
up,17,1120,-5.312,-29.187,-8.000,0.263,0.211,-0.722
up,17,1140,-7.625,-36.813,-21.000,0.275,0.254,-0.703
up,17,1160,-17.500,-38.375,-18.000,0.284,0.301,-0.706
up,17,1180,-24.187,-30.312,-6.250,0.265,0.338,-0.744
up,17,1200,-17.562,-25.687,4.875,0.246,0.356,-0.736
up,17,1220,1.625,-35.625,10.688,0.229,0.377,-0.731
up,17,1240,13.125,-44.500,16.500,0.196,0.448,-0.724
up,17,1260,16.125,-46.375,36.250,0.184,0.507,-0.746
up,17,1280,18.250,-40.938,66.563,0.183,0.438,-0.742
up,17,1300,11.125,-37.313,81.688,0.077,0.346,-0.698
up,17,1320,10.563,-37.000,67.188,-0.019,0.316,-0.723
up,17,1340,23.750,-39.063,36.313,-0.041,0.303,-0.758
up,17,1360,42.313,-46.563,11.813,-0.030,0.301,-0.766
up,17,1380,50.250,-49.688,-3.875,-0.003,0.238,-0.782
up,17,1400,47.813,-40.500,-11.750,0.012,0.209,-0.792
up,17,1420,39.875,-18.687,-15.625,0.051,0.199,-0.787
up,17,1440,25.500,-6.437,-0.875,0.088,0.183,-0.726
up,17,1460,11.875,-14.813,13.188,0.087,0.179,-0.725
up,17,1480,-7.000,-13.125,11.625,0.068,0.115,-0.734
up,17,1500,-27.312,-12.000,8.188,0.066,0.149,-0.708
up,17,1520,-61.250,9.000,4.250,0.067,0.252,-0.826
up,17,1540,-81.250,24.937,1.750,0.043,0.313,-0.909
up,17,1560,-83.250,13.563,9.750,0.082,0.333,-0.900
up,17,1580,-82.313,0.687,11.688,0.139,0.308,-0.888
up,17,1600,-88.375,-1.625,-8.250,0.064,0.366,-0.901
up,17,1620,-84.188,-30.125,-38.125,-0.031,0.506,-1.029
up,17,1640,-81.063,-30.625,-52.188,-0.004,0.602,-1.170
up,17,1660,-76.438,-18.687,-37.063,0.066,0.711,-1.180
up,17,1680,-81.063,-10.250,-14.313,0.066,0.777,-1.208
up,17,1700,-83.000,2.813,2.313,0.013,0.828,-1.225
up,17,1720,-79.313,4.125,10.750,-0.002,0.877,-1.239
up,17,1740,-75.750,15.438,14.063,0.027,0.886,-1.244
up,17,1760,-59.813,19.312,16.312,0.059,0.846,-1.185
up,17,1780,-38.000,-2.438,5.625,0.025,0.848,-1.153
up,17,1800,-18.375,-12.875,-8.063,0.013,0.847,-1.206
up,17,1820,0.062,-13.938,-16.125,-0.007,0.858,-1.179
up,17,1840,7.687,-17.875,-16.062,0.022,0.878,-1.097
up,17,1860,6.562,-21.687,-7.500,0.037,0.869,-1.079
up,17,1880,1.687,-17.687,0.750,0.021,0.855,-1.068
up,17,1900,2.188,-24.062,5.500,-0.026,0.835,-1.102
up,17,1920,9.938,-20.812,7.500,-0.047,0.790,-1.130
up,17,1940,22.062,-13.063,9.313,-0.043,0.755,-1.110
up,17,1960,28.312,-7.875,11.625,-0.030,0.733,-1.043
up,17,1980,25.937,-5.187,14.063,-0.042,0.700,-0.994
up,17,2000,23.437,-2.938,12.938,-0.041,0.671,-0.972
up,18,1,-0.375,0.312,0.000,0.002,0.547,-0.885
up,18,21,-2.063,-1.750,-0.562,0.003,0.552,-0.894
up,18,40,-2.188,-2.938,-0.250,0.001,0.561,-0.918
up,18,60,0.187,-4.125,0.187,-0.003,0.568,-0.937
up,18,80,-0.437,-4.062,-0.312,-0.007,0.576,-0.939
up,18,100,-1.687,-6.937,-1.062,-0.009,0.581,-0.951
up,18,120,-4.000,-12.688,-1.187,-0.002,0.612,-0.973
up,18,140,-8.125,-19.312,3.188,-0.003,0.650,-1.015
up,18,160,-13.313,-28.312,9.250,-0.073,0.684,-1.102
up,18,180,-14.375,-40.375,4.437,-0.173,0.703,-1.214
up,18,200,-4.250,-55.000,-8.250,-0.278,0.743,-1.342
up,18,220,6.500,-56.563,-17.187,-0.322,0.787,-1.412
up,18,240,14.313,-48.250,-19.375,-0.320,0.810,-1.381
up,18,260,13.875,-43.938,-18.687,-0.313,0.792,-1.290
up,18,280,6.000,-53.250,-28.750,-0.329,0.753,-1.175
up,18,300,-14.313,-64.750,-44.250,-0.314,0.743,-1.080
up,18,320,-53.063,-61.438,-45.688,-0.276,0.776,-1.036
up,18,340,-73.625,-54.563,-14.563,-0.166,0.789,-1.063
up,18,360,-71.813,-35.500,20.562,-0.154,0.783,-1.099
up,18,380,-47.813,-19.750,45.313,-0.178,0.750,-1.116
up,18,400,-20.875,-0.062,44.125,-0.206,0.702,-1.130
up,18,420,19.625,15.188,25.125,-0.206,0.648,-1.111
up,18,440,60.313,16.687,6.062,-0.185,0.649,-1.032
up,18,460,87.313,20.625,-11.063,-0.158,0.642,-0.947
up,18,480,97.188,29.062,-17.937,-0.086,0.609,-0.833
up,18,500,89.438,32.188,-17.375,-0.083,0.607,-0.784
up,18,520,76.625,36.125,-9.750,-0.071,0.565,-0.818
up,18,540,68.938,39.313,2.938,-0.046,0.488,-0.792
up,18,560,56.500,39.875,6.125,-0.091,0.486,-0.779
up,18,580,45.625,52.750,11.438,-0.098,0.434,-0.849
up,18,600,50.063,62.000,1.312,-0.110,0.397,-0.775
up,18,620,55.500,45.000,-16.687,-0.036,0.413,-0.717
up,18,640,47.250,43.688,-13.625,0.012,0.415,-0.746
up,18,660,26.812,59.938,7.187,-0.023,0.372,-0.799
up,18,680,15.688,80.250,21.500,-0.095,0.280,-0.816
up,18,700,29.187,74.688,-3.063,-0.104,0.278,-0.671
up,18,720,29.187,49.063,-26.562,-0.039,0.299,-0.569
up,18,740,4.437,44.125,-23.687,0.070,0.328,-0.578
up,18,760,-18.375,65.625,13.813,0.082,0.286,-0.677
up,18,780,-15.188,72.375,20.937,-0.016,0.207,-0.634
up,18,800,-1.312,48.063,2.250,0.009,0.182,-0.646
up,18,820,-0.562,50.250,-9.250,0.116,0.186,-0.633
up,18,840,-8.188,47.625,-3.063,0.209,0.173,-0.604
up,18,860,-6.750,40.063,-0.937,0.173,0.165,-0.691
up,18,880,5.062,26.750,-19.625,0.106,0.218,-0.778
up,18,900,10.188,22.312,-28.625,0.117,0.279,-0.839
up,18,920,7.500,26.875,-18.937,0.142,0.284,-0.855
up,18,940,6.875,23.750,-12.500,0.152,0.280,-0.788
up,18,960,-0.687,12.750,-12.313,0.161,0.265,-0.775
up,18,980,-5.500,2.563,-18.000,0.151,0.248,-0.808
up,18,1000,-6.187,-10.000,-22.625,0.149,0.271,-0.844
up,18,1020,-6.437,-13.125,-19.625,0.140,0.295,-0.890
up,18,1040,-5.812,-16.125,-18.250,0.126,0.304,-0.899
up,18,1060,-7.062,-15.500,-14.625,0.114,0.329,-0.921
up,18,1080,-9.500,-7.875,-12.000,0.091,0.329,-0.953
up,18,1100,-7.437,-6.750,-21.562,0.088,0.323,-0.927
up,18,1120,-2.750,-11.625,-33.438,0.126,0.368,-0.892
up,18,1140,-6.250,-8.063,-29.687,0.151,0.419,-0.914
up,18,1160,-9.938,-0.875,-15.750,0.150,0.424,-0.904
up,18,1180,-13.750,1.562,-8.625,0.124,0.406,-0.873
up,18,1200,-24.812,0.375,-8.313,0.118,0.399,-0.818
up,18,1220,-29.125,-1.312,-9.188,0.116,0.413,-0.811
up,18,1240,-20.312,-7.375,-9.938,0.149,0.439,-0.841
up,18,1260,-13.813,-14.375,-1.500,0.167,0.401,-0.854
up,18,1280,-10.063,-13.188,1.062,0.100,0.382,-0.805
up,18,1300,-3.313,-18.375,-7.000,0.073,0.400,-0.770
up,18,1320,1.562,-25.937,-15.625,0.093,0.394,-0.783
up,18,1340,1.437,-28.437,-16.937,0.077,0.346,-0.815
up,18,1360,5.625,-30.187,-17.687,0.042,0.353,-0.819
up,18,1380,8.875,-29.312,-11.250,-0.003,0.371,-0.852
up,18,1400,11.688,-24.125,-1.312,0.006,0.346,-0.908
up,18,1420,28.375,-10.875,-2.188,-0.021,0.349,-0.874
up,18,1440,37.313,-12.063,-11.813,-0.020,0.376,-0.757
up,18,1460,35.000,-28.562,-19.750,0.004,0.405,-0.735
up,18,1480,24.562,-35.250,-18.250,0.033,0.418,-0.776
up,18,1500,9.625,-28.562,-1.125,0.044,0.421,-0.768
up,18,1520,-4.750,-20.875,23.500,0.029,0.409,-0.724
up,18,1540,-20.812,-21.625,41.688,0.039,0.353,-0.699
up,18,1560,-28.250,-26.500,50.563,0.012,0.297,-0.716
up,18,1580,-36.000,-14.875,41.688,-0.067,0.332,-0.727
up,18,1600,-32.750,-24.437,7.750,-0.157,0.430,-0.811
up,18,1620,-13.438,-32.000,-22.437,-0.115,0.490,-0.968
up,18,1640,4.125,-27.500,-16.375,0.034,0.417,-0.955
up,18,1660,8.688,-25.937,6.937,-0.020,0.421,-0.904
up,18,1680,-4.937,-24.375,8.438,-0.229,0.521,-1.004
up,18,1700,-14.563,-10.313,4.812,-0.192,0.512,-1.128
up,18,1720,-10.750,17.375,22.250,-0.048,0.464,-1.160
up,18,1740,-6.625,33.125,36.500,0.020,0.377,-1.039
up,18,1760,-15.000,23.750,38.563,-0.033,0.353,-0.961
up,18,1780,-35.688,4.562,26.312,-0.118,0.437,-1.016
up,18,1800,-61.938,4.000,18.500,-0.130,0.527,-1.179
up,18,1820,-71.750,29.062,23.125,-0.070,0.553,-1.309
up,18,1840,-50.563,39.188,32.313,-0.083,0.586,-1.307
up,18,1860,-33.625,32.375,26.437,-0.097,0.612,-1.258
up,18,1880,-34.938,33.688,17.437,-0.082,0.656,-1.215
up,18,1900,-34.688,38.063,15.563,0.003,0.652,-1.174
up,18,1920,-27.750,36.375,13.250,0.027,0.652,-1.104
up,18,1940,-24.812,18.687,7.187,0.004,0.655,-1.108
up,18,1960,-14.938,-1.687,-4.000,0.011,0.639,-1.155
up,18,1980,1.187,-17.750,-10.625,0.039,0.636,-1.124
up,18,2000,5.562,-24.562,-11.688,0.009,0.659,-1.073
up,19,1,-1.375,-0.687,-2.125,-0.009,0.530,-0.914
up,19,21,0.000,-0.937,-1.562,-0.007,0.532,-0.914
up,19,40,1.437,-1.500,-0.750,-0.008,0.531,-0.914
up,19,60,-0.187,-0.875,-1.437,-0.022,0.532,-0.914
up,19,80,-1.062,-2.188,-2.563,-0.021,0.536,-0.923
up,19,100,0.062,-2.000,-3.250,-0.015,0.539,-0.934
up,19,120,1.250,-3.563,-2.750,-0.010,0.540,-0.922
up,19,140,0.937,-7.937,-2.125,-0.015,0.542,-0.930
up,19,160,0.750,-10.938,-3.938,-0.027,0.538,-0.946
up,19,180,2.438,-17.875,-7.187,-0.037,0.539,-0.951
up,19,200,3.563,-26.500,-8.375,-0.049,0.556,-0.970
up,19,220,4.937,-31.062,-8.813,-0.073,0.575,-1.000
up,19,240,8.875,-37.563,-14.000,-0.109,0.593,-1.009
up,19,260,13.000,-45.688,-22.000,-0.137,0.629,-1.036
up,19,280,15.438,-46.813,-23.312,-0.143,0.658,-1.084
up,19,300,15.625,-43.375,-16.687,-0.164,0.676,-1.109
up,19,320,11.375,-40.625,-5.750,-0.224,0.687,-1.147
up,19,340,5.062,-36.188,1.937,-0.339,0.685,-1.261
up,19,360,8.688,-35.125,0.187,-0.404,0.646,-1.376
up,19,380,21.062,-30.125,-5.250,-0.438,0.644,-1.446
up,19,400,20.937,-14.750,-6.312,-0.432,0.672,-1.472
up,19,420,21.562,6.062,6.250,-0.324,0.644,-1.454
up,19,440,26.500,21.125,23.687,-0.241,0.569,-1.375
up,19,460,28.250,24.625,33.813,-0.194,0.469,-1.275
up,19,480,29.687,15.438,25.625,-0.197,0.433,-1.226
up,19,500,32.875,-0.937,-1.875,-0.177,0.385,-1.251
up,19,520,53.938,-12.313,-30.750,-0.155,0.393,-1.261
up,19,540,74.750,-11.250,-45.938,-0.119,0.468,-1.189
up,19,560,71.438,6.562,-33.500,-0.063,0.481,-1.012
up,19,580,50.500,14.000,-12.563,-0.048,0.484,-0.858
up,19,600,21.687,21.187,11.375,-0.038,0.423,-0.852
up,19,620,-1.062,38.688,29.250,-0.046,0.391,-0.867
up,19,640,-3.188,41.625,32.313,-0.095,0.351,-0.849
up,19,660,3.500,33.000,20.562,-0.161,0.360,-0.810
up,19,680,-2.938,29.125,13.688,-0.153,0.371,-0.824
up,19,700,-8.375,41.813,10.063,-0.138,0.365,-0.812
up,19,720,-2.063,47.813,4.312,-0.111,0.379,-0.773
up,19,740,7.937,58.500,-4.187,-0.050,0.389,-0.719
up,19,760,6.250,74.688,-6.312,-0.045,0.375,-0.623
up,19,780,-0.312,83.125,-0.187,-0.007,0.304,-0.581
up,19,800,3.625,77.625,-10.875,-0.009,0.302,-0.527
up,19,820,11.000,55.125,-24.062,0.083,0.348,-0.571
up,19,840,16.062,59.250,-17.875,0.117,0.315,-0.623
up,19,860,14.313,56.188,-14.688,0.078,0.300,-0.637
up,19,880,14.750,53.625,-7.437,0.145,0.252,-0.681
up,19,900,18.812,51.188,5.000,0.182,0.182,-0.634
up,19,920,13.313,40.063,-0.812,0.127,0.146,-0.635
up,19,940,7.437,30.125,-10.750,0.147,0.124,-0.726
up,19,960,5.625,28.500,-10.250,0.139,0.109,-0.770
up,19,980,4.875,21.687,-11.500,0.131,0.106,-0.784
up,19,1000,2.313,14.000,-18.187,0.109,0.133,-0.824
up,19,1020,-5.375,10.563,-21.937,0.071,0.159,-0.906
up,19,1040,-7.437,10.813,-26.125,0.085,0.168,-0.919
up,19,1060,-4.937,1.625,-30.750,0.153,0.206,-0.881
up,19,1080,-4.812,-8.625,-26.812,0.200,0.248,-0.885
up,19,1100,-9.000,-8.750,-14.000,0.177,0.269,-0.955
up,19,1120,-6.125,-5.750,-7.375,0.131,0.265,-0.968
up,19,1140,-3.563,-9.625,-8.750,0.120,0.281,-0.947
up,19,1160,-5.000,-8.250,-6.812,0.123,0.278,-0.984
up,19,1180,-3.250,-6.625,-4.562,0.133,0.291,-0.959
up,19,1200,-6.812,-5.000,-1.437,0.147,0.320,-0.944
up,19,1220,-11.688,0.500,2.188,0.127,0.304,-0.979
up,19,1240,-10.563,1.875,-3.875,0.111,0.290,-0.946
up,19,1260,-9.625,-2.250,-12.813,0.134,0.325,-0.925
up,19,1280,-10.438,1.187,-15.688,0.142,0.347,-0.963
up,19,1300,-8.875,3.125,-15.813,0.147,0.347,-0.937
up,19,1320,-8.813,-1.687,-13.688,0.162,0.355,-0.892
up,19,1340,-11.000,-0.812,-12.688,0.152,0.350,-0.902
up,19,1360,-6.375,-4.937,-12.813,0.148,0.344,-0.886
up,19,1380,2.375,-11.688,-12.188,0.169,0.331,-0.879
up,19,1400,8.938,-10.938,-11.313,0.154,0.342,-0.852
up,19,1420,9.125,-13.313,-8.125,0.148,0.360,-0.799
up,19,1440,5.937,-13.563,-0.625,0.155,0.363,-0.787
up,19,1460,-3.750,-3.188,14.375,0.130,0.326,-0.801
up,19,1480,-4.750,0.750,21.125,0.096,0.252,-0.759
up,19,1500,2.938,-16.125,7.312,0.057,0.235,-0.657
up,19,1520,3.188,-33.000,-7.062,0.042,0.264,-0.625
up,19,1540,-5.062,-43.438,-15.313,0.010,0.317,-0.677
up,19,1560,-6.437,-42.438,-19.750,0.024,0.307,-0.723
up,19,1580,2.375,-41.000,-24.562,0.026,0.289,-0.673
up,19,1600,6.937,-54.563,-30.625,0.008,0.279,-0.640
up,19,1620,-4.437,-68.750,-14.063,0.023,0.259,-0.745
up,19,1640,-19.812,-42.688,19.625,-0.024,0.275,-0.821
up,19,1660,-15.375,-21.687,30.187,-0.090,0.307,-0.797
up,19,1680,1.937,-31.250,22.000,-0.076,0.276,-0.756
up,19,1700,12.438,-48.875,11.375,0.024,0.185,-0.696
up,19,1720,2.438,-57.313,10.188,-0.008,0.226,-0.673
up,19,1740,-17.875,-60.438,20.312,-0.104,0.340,-0.779
up,19,1760,-38.500,-30.750,44.250,-0.091,0.371,-0.953
up,19,1780,-39.250,-12.875,53.813,-0.041,0.281,-0.998
up,19,1800,-29.312,-13.063,59.750,-0.077,0.274,-0.942
up,19,1820,-42.750,-6.812,54.625,-0.220,0.380,-0.936
up,19,1840,-69.500,6.812,43.313,-0.207,0.394,-1.034
up,19,1860,-65.313,6.437,32.625,-0.106,0.373,-1.111
up,19,1880,-52.375,-6.375,22.437,-0.116,0.440,-1.120
up,19,1900,-64.188,6.312,16.812,-0.146,0.585,-1.161
up,19,1920,-82.938,29.812,21.812,-0.193,0.702,-1.254
up,19,1940,-87.500,45.000,20.937,-0.136,0.683,-1.307
up,19,1960,-71.188,49.063,23.062,-0.017,0.660,-1.245
up,19,1980,-59.063,44.438,22.250,-0.056,0.746,-1.149
up,19,2000,-61.188,36.875,2.938,-0.142,0.859,-1.151
up,20,1,-2.375,0.062,-1.250,-0.024,0.561,-0.888
up,20,21,-1.625,-1.375,-3.938,-0.026,0.569,-0.895
up,20,40,0.125,-2.750,-5.187,-0.021,0.579,-0.905
up,20,60,1.625,-2.125,-4.875,-0.022,0.583,-0.912
up,20,80,1.562,-1.437,-3.938,-0.020,0.585,-0.904
up,20,100,-0.687,-0.875,-1.687,-0.017,0.597,-0.910
up,20,120,-1.437,-1.625,0.375,-0.016,0.610,-0.923
up,20,140,-0.062,-5.500,1.562,-0.016,0.617,-0.935
up,20,160,1.687,-12.500,2.438,-0.012,0.631,-0.955
up,20,180,0.500,-19.500,3.000,-0.011,0.637,-0.982
up,20,200,9.500,-33.063,-4.750,-0.014,0.615,-0.978
up,20,220,29.750,-63.188,-23.812,-0.058,0.649,-0.920
up,20,240,37.938,-99.063,-41.875,-0.125,0.741,-0.965
up,20,260,24.750,-104.250,-33.250,-0.218,0.809,-1.128
up,20,280,11.688,-90.875,-10.563,-0.433,0.833,-1.347
up,20,300,13.375,-75.688,-5.187,-0.606,0.796,-1.518
up,20,320,30.250,-60.188,-12.375,-0.695,0.748,-1.616
up,20,340,41.313,-36.875,-20.062,-0.680,0.731,-1.591
up,20,360,37.750,-12.938,-21.937,-0.568,0.709,-1.519
up,20,380,38.313,7.250,-19.187,-0.415,0.661,-1.407
up,20,400,40.313,14.063,-13.688,-0.338,0.612,-1.360
up,20,420,48.688,21.625,-15.125,-0.286,0.506,-1.330
up,20,440,59.813,18.937,-19.625,-0.259,0.419,-1.240
up,20,460,65.125,12.625,-30.312,-0.259,0.414,-1.153
up,20,480,59.688,12.813,-40.625,-0.233,0.449,-1.093
up,20,500,53.688,6.125,-34.500,-0.225,0.418,-1.055
up,20,520,42.438,-2.188,-27.812,-0.199,0.381,-1.024
up,20,540,18.687,14.000,-10.375,-0.203,0.346,-1.046
up,20,560,3.438,40.625,-4.187,-0.206,0.319,-1.040
up,20,580,19.375,47.750,-16.375,-0.159,0.341,-0.964
up,20,600,24.500,67.250,-21.687,-0.089,0.395,-0.837
up,20,620,16.812,97.688,-2.813,-0.087,0.370,-0.707
up,20,640,39.188,91.250,-15.313,-0.068,0.329,-0.564
up,20,660,63.063,68.250,-48.250,0.003,0.396,-0.396
up,20,680,49.500,66.125,-55.813,0.128,0.471,-0.330
up,20,700,26.437,85.813,-28.562,0.223,0.400,-0.337
up,20,720,16.625,90.875,16.562,0.226,0.330,-0.358
up,20,740,21.062,89.813,28.312,0.091,0.157,-0.403
up,20,760,25.312,66.250,10.063,0.072,0.082,-0.438
up,20,780,10.250,69.438,30.187,0.090,0.022,-0.566
up,20,800,11.438,73.875,52.625,0.062,-0.015,-0.648
up,20,820,34.313,57.875,56.188,-0.017,-0.074,-0.714
up,20,840,35.875,31.125,23.687,-0.090,-0.070,-0.671
up,20,860,8.750,34.063,3.875,-0.080,-0.044,-0.799
up,20,880,1.937,33.500,-12.438,-0.020,-0.024,-0.807
up,20,900,3.750,6.937,-40.000,0.076,0.032,-0.828
up,20,920,-2.063,5.500,-36.438,0.131,0.066,-0.903
up,20,940,-6.937,5.625,-27.687,0.156,0.075,-0.866
up,20,960,-12.625,-3.313,-22.750,0.183,0.061,-0.850
up,20,980,-17.937,-13.313,-19.000,0.152,0.062,-0.867
up,20,1000,-20.375,-15.563,-13.188,0.108,0.065,-0.937
up,20,1020,-19.125,-16.437,-13.125,0.060,0.072,-0.944
up,20,1040,-18.187,-23.125,-19.437,0.066,0.106,-0.915
up,20,1060,-24.250,-15.813,-13.438,0.058,0.151,-0.957
up,20,1080,-28.562,-5.312,-12.000,0.061,0.161,-0.930
up,20,1100,-30.187,-8.188,-17.062,0.089,0.175,-0.894
up,20,1120,-36.438,-3.438,-19.000,0.102,0.206,-0.871
up,20,1140,-40.438,0.750,-24.562,0.136,0.232,-0.826
up,20,1160,-38.125,-5.687,-27.812,0.170,0.238,-0.765
up,20,1180,-40.688,-14.688,-23.687,0.178,0.268,-0.717
up,20,1200,-48.563,-12.625,-6.750,0.114,0.267,-0.789
up,20,1220,-41.500,-2.125,-0.375,0.076,0.261,-0.768
up,20,1240,-26.500,-11.625,-9.438,0.049,0.277,-0.688
up,20,1260,-15.938,-21.812,-24.687,0.035,0.276,-0.701
up,20,1280,-14.938,-18.250,-18.125,0.008,0.322,-0.728
up,20,1300,-18.875,-15.250,3.500,0.001,0.300,-0.732
up,20,1320,-8.250,-18.125,16.250,-0.012,0.265,-0.680
up,20,1340,11.938,-27.062,-0.250,-0.061,0.305,-0.642
up,20,1360,22.125,-41.625,-17.500,-0.075,0.317,-0.650
up,20,1380,30.625,-53.813,-16.937,-0.031,0.325,-0.686
up,20,1400,27.125,-48.688,8.188,0.002,0.297,-0.744
up,20,1420,16.500,-19.812,30.875,-0.033,0.261,-0.787
up,20,1440,22.312,10.375,28.687,-0.154,0.223,-0.797
up,20,1460,54.500,-11.313,0.875,-0.172,0.283,-0.695
up,20,1480,62.563,-58.625,-10.250,-0.009,0.261,-0.673
up,20,1500,10.375,-17.000,30.937,0.151,0.250,-0.636
up,20,1520,-58.313,20.000,65.125,0.101,0.302,-0.651
up,20,1540,-100.375,10.563,66.063,-0.092,0.359,-0.937
up,20,1560,-73.000,-12.750,30.500,-0.062,0.298,-1.159
up,20,1580,-45.500,-28.875,13.688,-0.006,0.393,-1.151
up,20,1600,-63.125,-34.625,6.187,-0.104,0.518,-1.316
up,20,1620,-73.438,-20.000,9.000,-0.096,0.487,-1.473
up,20,1640,-61.625,-8.500,14.438,-0.069,0.491,-1.435
up,20,1660,-60.750,-1.875,13.750,-0.156,0.508,-1.450
up,20,1680,-63.313,-3.000,3.063,-0.256,0.564,-1.458
up,20,1700,-61.375,-6.937,-10.375,-0.201,0.630,-1.353
up,20,1720,-59.125,-20.375,-13.688,-0.144,0.731,-1.279
up,20,1740,-59.438,-22.187,-6.375,-0.120,0.819,-1.341
up,20,1760,-47.000,-12.000,6.875,-0.095,0.838,-1.415
up,20,1780,-21.250,1.750,18.875,-0.088,0.796,-1.385
up,20,1800,-3.938,4.250,21.125,-0.125,0.757,-1.300
up,20,1820,9.375,-5.875,19.875,-0.114,0.697,-1.245
up,20,1840,17.000,-4.250,21.875,-0.102,0.649,-1.197
up,20,1860,19.375,0.187,31.312,-0.127,0.618,-1.131
up,20,1880,21.250,3.688,34.000,-0.156,0.558,-1.096
up,20,1900,26.562,6.250,24.562,-0.149,0.512,-1.008
up,20,1920,28.875,-1.000,14.375,-0.105,0.511,-0.941
up,20,1940,25.875,15.313,8.813,-0.093,0.512,-0.945
up,20,1960,25.062,6.187,6.250,-0.070,0.500,-0.929
up,20,1980,23.500,10.000,5.562,-0.056,0.498,-0.882
up,20,2000,18.062,8.438,7.187,-0.046,0.493,-0.868
up,21,1,-3.125,-1.937,2.813,-0.049,0.450,-0.966
up,21,21,-2.313,-0.187,0.937,-0.061,0.455,-0.970
up,21,40,0.187,-1.375,0.187,-0.056,0.460,-0.971
up,21,60,0.625,-0.187,-0.437,-0.053,0.467,-0.959
up,21,80,0.625,0.375,-1.437,-0.052,0.468,-0.957
up,21,100,2.250,-0.187,-1.625,-0.040,0.470,-0.953
up,21,120,0.562,-0.125,0.500,-0.037,0.471,-0.947
up,21,140,-0.687,-1.687,2.125,-0.044,0.461,-0.964
up,21,160,-0.125,-7.062,1.750,-0.044,0.458,-0.973
up,21,180,-5.000,-12.375,2.313,-0.059,0.468,-1.017
up,21,200,-8.813,-19.937,1.187,-0.092,0.472,-1.107
up,21,220,-4.437,-36.813,-0.875,-0.143,0.509,-1.230
up,21,240,-4.062,-46.625,-1.500,-0.236,0.580,-1.368
up,21,260,-3.000,-47.438,-4.000,-0.339,0.633,-1.530
up,21,280,11.688,-50.500,-10.250,-0.425,0.678,-1.631
up,21,300,30.312,-48.000,-17.937,-0.445,0.701,-1.652
up,21,320,46.125,-45.750,-25.562,-0.467,0.721,-1.636
up,21,340,61.000,-50.688,-36.438,-0.509,0.717,-1.638
up,21,360,73.500,-52.000,-51.750,-0.495,0.689,-1.622
up,21,380,80.125,-35.063,-57.438,-0.413,0.615,-1.582
up,21,400,90.438,0.375,-52.813,-0.234,0.484,-1.462
up,21,420,107.063,17.562,-41.938,-0.145,0.387,-1.248
up,21,440,107.625,8.063,-24.750,-0.085,0.323,-1.007
up,21,460,84.938,8.500,-16.312,0.047,0.225,-0.834
up,21,480,63.500,-2.813,-3.875,0.052,0.184,-0.784
up,21,500,45.688,-8.625,9.813,-0.078,0.251,-0.927
up,21,520,47.250,14.375,9.188,-0.161,0.228,-1.047
up,21,540,58.500,34.188,-2.750,-0.185,0.183,-0.931
up,21,560,44.750,40.125,-11.688,-0.174,0.212,-0.759
up,21,580,22.625,50.125,-15.563,-0.131,0.139,-0.782
up,21,600,32.375,53.375,-23.687,-0.098,0.132,-0.735
up,21,620,30.000,54.188,-17.625,-0.086,0.186,-0.664
up,21,640,19.375,64.563,-14.500,-0.129,0.138,-0.611
up,21,660,21.062,57.813,-43.125,-0.117,0.161,-0.489
up,21,680,27.062,34.313,-58.250,0.044,0.314,-0.462
up,21,700,24.250,45.188,-36.813,0.169,0.328,-0.554
up,21,720,14.063,71.375,-7.687,0.148,0.281,-0.507
up,21,740,5.500,78.313,-1.687,0.138,0.283,-0.466
up,21,760,12.563,68.250,32.688,0.415,0.250,-0.525
up,21,780,11.563,75.375,92.063,0.366,-0.027,-0.597
up,21,800,-0.562,70.688,99.250,-0.051,-0.329,-0.580
up,21,820,-15.688,46.750,54.875,-0.188,-0.323,-0.662
up,21,840,-22.500,33.813,27.000,-0.065,-0.260,-0.784
up,21,860,-21.062,20.437,5.875,-0.014,-0.230,-0.815
up,21,880,-20.437,2.125,-9.438,-0.019,-0.119,-0.883
up,21,900,-21.500,5.437,-6.250,-0.019,-0.076,-1.002
up,21,920,-17.187,7.000,-5.062,-0.016,-0.042,-0.983
up,21,940,-6.750,-9.313,-5.812,0.052,0.002,-0.952
up,21,960,-5.312,-15.250,3.063,0.052,-0.015,-0.955
up,21,980,-9.250,-15.563,2.938,-0.032,-0.048,-0.998
up,21,1000,-5.562,-18.312,-6.625,-0.074,-0.012,-1.021
up,21,1020,-0.687,-17.500,-20.375,-0.053,-0.005,-0.984
up,21,1040,-5.500,-21.687,-34.563,0.031,0.013,-0.890
up,21,1060,-13.750,-24.750,-34.563,0.083,0.058,-0.879
up,21,1080,-20.125,-19.062,-26.375,0.032,0.041,-0.948
up,21,1100,-23.937,-17.000,-30.375,-0.043,0.030,-0.928
up,21,1120,-24.687,-19.625,-42.188,-0.050,0.098,-0.937
up,21,1140,-22.375,-15.500,-45.938,-0.022,0.128,-0.929
up,21,1160,-26.250,-15.938,-44.625,0.005,0.116,-0.854
up,21,1180,-29.375,-13.375,-46.813,0.006,0.129,-0.822
up,21,1200,-30.000,-13.938,-46.188,0.002,0.177,-0.778
up,21,1220,-34.125,-14.188,-38.313,0.006,0.122,-0.859
up,21,1240,-25.500,-3.500,-29.500,-0.037,0.083,-0.907
up,21,1260,-6.687,4.437,-25.625,-0.058,0.111,-0.851
up,21,1280,10.063,4.562,-28.125,-0.019,0.135,-0.729
up,21,1300,15.938,-7.250,-37.500,0.043,0.104,-0.627
up,21,1320,5.000,-28.312,-35.000,0.016,0.090,-0.628
up,21,1340,-9.000,-23.625,-16.000,-0.015,0.080,-0.691
up,21,1360,-5.250,-2.875,-6.625,-0.041,0.088,-0.650
up,21,1380,5.875,-2.438,-9.250,-0.054,0.154,-0.554
up,21,1400,2.063,-16.062,-15.188,-0.050,0.139,-0.551
up,21,1420,-10.313,-21.687,-13.375,-0.017,0.151,-0.572
up,21,1440,-33.188,-11.375,1.250,0.003,0.175,-0.651
up,21,1460,-45.500,1.062,30.250,-0.034,0.144,-0.746
up,21,1480,-43.313,-13.188,57.500,-0.046,0.117,-0.794
up,21,1500,-36.813,-29.812,69.813,-0.083,0.139,-0.834
up,21,1520,-43.250,-23.312,61.438,-0.112,0.167,-0.820
up,21,1540,-66.688,0.687,44.500,-0.104,0.258,-0.872
up,21,1560,-81.813,-14.938,25.500,-0.081,0.295,-0.972
up,21,1580,-85.875,-34.625,25.875,-0.084,0.388,-1.075
up,21,1600,-86.250,-25.812,33.688,-0.057,0.515,-1.220
up,21,1620,-92.813,2.438,35.438,-0.056,0.513,-1.226
up,21,1640,-96.063,0.562,39.875,-0.062,0.572,-1.183
up,21,1660,-106.938,2.938,40.500,-0.126,0.675,-1.290
up,21,1680,-105.563,24.562,38.250,-0.114,0.734,-1.368
up,21,1700,-79.313,33.813,32.750,-0.062,0.728,-1.361
up,21,1720,-49.750,30.062,23.937,-0.100,0.755,-1.326
up,21,1740,-62.250,35.188,10.500,-0.169,0.813,-1.358
up,21,1760,-74.500,49.938,9.000,-0.043,0.797,-1.347
up,21,1780,-57.938,36.063,10.875,0.030,0.789,-1.304
up,21,1800,-29.062,6.687,2.000,0.023,0.739,-1.285
up,21,1820,-9.938,-15.000,-12.438,-0.004,0.757,-1.251
up,21,1840,-7.812,-23.312,-13.438,-0.039,0.794,-1.250
up,21,1860,-8.625,-17.437,-12.000,-0.079,0.798,-1.232
up,21,1880,0.125,-10.875,-9.375,-0.086,0.777,-1.179
up,21,1900,15.813,-7.250,-9.500,-0.089,0.764,-1.129
up,21,1920,25.062,1.312,-8.063,-0.071,0.729,-1.065
up,21,1940,27.812,11.438,-4.812,-0.013,0.698,-0.958
up,21,1960,23.687,14.125,3.688,0.037,0.656,-0.870
up,21,1980,20.187,13.188,13.313,0.053,0.614,-0.833
up,21,2000,18.125,14.688,17.562,0.033,0.573,-0.809
up,22,1,0.312,-0.437,-1.250,-0.019,0.552,-0.916
up,22,21,2.188,-1.375,-1.062,-0.008,0.556,-0.917
up,22,40,1.687,0.375,1.062,-0.010,0.551,-0.922
up,22,60,1.250,2.813,0.875,-0.029,0.541,-0.926
up,22,80,3.938,0.375,-3.813,-0.033,0.547,-0.921
up,22,100,4.437,-1.500,-5.812,-0.015,0.562,-0.919
up,22,120,2.375,-1.000,-3.313,-0.006,0.579,-0.931
up,22,140,2.688,-2.125,0.562,0.003,0.584,-0.948
up,22,160,4.062,-5.812,1.937,-0.004,0.591,-0.961
up,22,180,2.375,-12.313,0.687,-0.020,0.612,-0.977
up,22,200,-0.500,-21.187,1.125,-0.031,0.652,-1.041
up,22,220,-1.062,-30.500,4.625,-0.047,0.717,-1.088
up,22,240,-6.000,-45.063,11.875,-0.140,0.794,-1.203
up,22,260,-10.813,-55.625,11.875,-0.286,0.859,-1.371
up,22,280,2.875,-70.563,-7.250,-0.452,0.896,-1.571
up,22,300,41.938,-105.375,-38.313,-0.628,0.995,-1.690
up,22,320,61.125,-119.125,-48.563,-0.682,1.068,-1.779
up,22,340,56.875,-75.063,-49.688,-0.560,0.953,-1.792
up,22,360,76.250,-28.187,-45.000,-0.375,0.768,-1.672
up,22,380,100.063,-11.188,-47.125,-0.218,0.566,-1.459
up,22,400,104.813,-14.000,-41.188,-0.158,0.458,-1.264
up,22,420,74.750,-13.250,-16.625,-0.177,0.445,-1.147
up,22,440,30.187,4.000,-4.375,-0.158,0.431,-1.052
up,22,460,18.125,-0.875,-19.500,-0.182,0.354,-1.034
up,22,480,17.812,-1.625,-39.875,-0.139,0.325,-0.953
up,22,500,-1.187,16.625,-36.750,-0.095,0.405,-0.799
up,22,520,-16.687,42.688,-20.125,-0.012,0.393,-0.731
up,22,540,-6.250,67.625,-9.063,0.004,0.294,-0.728
up,22,560,20.312,82.750,11.063,-0.018,0.374,-0.721
up,22,580,29.875,84.938,27.437,-0.040,0.421,-0.608
up,22,600,32.250,96.000,-3.500,-0.202,0.391,-0.533
up,22,620,58.500,83.375,-42.188,-0.100,0.469,-0.531
up,22,640,60.375,62.688,-28.437,0.184,0.532,-0.411
up,22,660,34.750,82.625,6.562,0.132,0.334,-0.439
up,22,680,39.000,90.000,27.750,0.073,0.229,-0.493
up,22,700,42.438,74.813,31.062,0.104,0.155,-0.411
up,22,720,25.062,65.188,9.375,0.163,0.035,-0.480
up,22,740,10.250,58.438,26.062,0.222,-0.076,-0.593
up,22,760,7.750,53.188,35.688,0.071,-0.236,-0.629
up,22,780,13.625,34.938,-21.875,-0.172,-0.327,-0.604
up,22,800,14.500,-1.437,-74.813,0.041,-0.190,-0.726
up,22,820,-3.875,18.187,-53.500,0.017,-0.042,-0.886
up,22,840,-5.875,30.875,-55.500,-0.068,-0.009,-0.856
up,22,860,-6.437,28.562,-68.875,0.082,0.103,-0.847
up,22,880,-3.438,27.937,-53.688,0.122,0.155,-0.930
up,22,900,-5.250,28.875,-25.562,0.121,0.169,-0.896
up,22,920,-10.813,20.062,-0.375,0.141,0.176,-0.894
up,22,940,-3.188,0.312,20.687,0.127,0.175,-0.929
up,22,960,5.187,-12.125,18.312,0.061,0.087,-0.891
up,22,980,6.187,-24.375,10.750,0.134,0.120,-0.844
up,22,1000,-1.187,-17.875,19.437,0.084,0.091,-0.916
up,22,1020,1.937,-18.000,6.875,-0.005,0.073,-0.872
up,22,1040,1.562,-27.937,-12.375,0.062,0.120,-0.850
up,22,1060,-0.875,-29.562,-13.813,0.102,0.180,-0.853
up,22,1080,-7.187,-23.562,-5.062,0.050,0.222,-0.940
up,22,1100,-14.313,-9.500,7.375,-0.040,0.204,-0.926
up,22,1120,-6.250,-11.375,-3.188,-0.027,0.205,-0.846
up,22,1140,11.125,-23.437,-18.750,0.102,0.232,-0.747
up,22,1160,15.563,-35.500,-12.625,0.251,0.271,-0.708
up,22,1180,8.063,-40.938,24.062,0.133,0.306,-0.700
up,22,1200,-2.250,-27.125,63.063,0.120,0.277,-0.742
up,22,1220,-1.687,-12.688,78.250,-0.033,0.170,-0.744
up,22,1240,11.438,-22.187,43.625,-0.052,0.073,-0.680
up,22,1260,29.375,-37.438,4.812,-0.034,0.109,-0.606
up,22,1280,29.562,-43.438,-4.875,-0.035,0.178,-0.562
up,22,1300,1.000,-26.062,28.000,-0.036,0.132,-0.640
up,22,1320,-27.812,4.250,56.750,-0.087,0.052,-0.672
up,22,1340,-29.187,10.125,43.125,-0.133,0.051,-0.622
up,22,1360,-10.125,-6.250,10.563,-0.078,0.057,-0.562
up,22,1380,-6.750,-30.187,-0.187,0.012,0.102,-0.544
up,22,1400,-33.313,-34.250,5.312,-0.024,0.208,-0.617
up,22,1420,-54.625,-30.375,24.375,-0.024,0.251,-0.776
up,22,1440,-41.563,-34.125,52.188,-0.008,0.154,-0.895
up,22,1460,-34.688,-46.563,59.188,-0.153,0.220,-0.920
up,22,1480,-67.500,-14.250,46.875,-0.261,0.373,-1.000
up,22,1500,-100.750,16.125,24.062,-0.133,0.377,-1.175
up,22,1520,-81.875,-1.750,22.500,-0.017,0.335,-1.252
up,22,1540,-61.688,-4.500,23.125,-0.058,0.448,-1.324
up,22,1560,-66.688,3.688,15.750,-0.192,0.561,-1.393
up,22,1580,-87.938,23.250,22.500,-0.156,0.624,-1.442
up,22,1600,-106.375,50.250,41.875,-0.123,0.646,-1.453
up,22,1620,-104.938,60.063,52.438,-0.161,0.682,-1.444
up,22,1640,-84.875,52.188,36.438,-0.236,0.721,-1.459
up,22,1660,-58.250,46.375,2.875,-0.190,0.726,-1.431
up,22,1680,-36.813,41.938,-18.062,-0.032,0.747,-1.324
up,22,1700,-34.438,44.188,-16.937,0.078,0.787,-1.204
up,22,1720,-38.563,33.063,-9.188,0.093,0.803,-1.123
up,22,1740,-35.563,3.938,-13.250,0.070,0.851,-1.146
up,22,1760,-20.812,-11.938,-20.875,0.094,0.854,-1.223
up,22,1780,8.000,-11.563,-23.187,0.102,0.828,-1.203
up,22,1800,25.875,-14.250,-19.437,0.089,0.829,-1.060
up,22,1820,18.812,-11.000,-9.938,0.082,0.796,-0.983
up,22,1840,14.625,-10.250,1.187,0.080,0.747,-0.966
up,22,1860,16.875,-6.187,13.000,0.079,0.668,-0.942
up,22,1880,19.187,0.625,15.000,0.047,0.598,-0.875
up,22,1900,16.250,1.187,10.750,0.022,0.549,-0.840
up,22,1920,14.813,0.562,6.250,0.020,0.519,-0.838
up,22,1940,15.000,-1.937,3.188,0.039,0.499,-0.816
up,22,1960,8.000,-1.125,3.688,0.039,0.502,-0.797
up,22,1980,-0.562,0.000,6.125,0.027,0.509,-0.815
up,22,2000,-8.000,2.438,9.375,0.010,0.521,-0.854
up,23,1,-0.062,-0.687,-0.750,-0.005,0.550,-0.893
up,23,21,-2.563,0.687,0.625,-0.008,0.552,-0.893
up,23,40,-2.375,-0.687,0.437,-0.008,0.549,-0.892
up,23,60,-1.562,-3.438,-0.562,-0.008,0.542,-0.894
up,23,80,-2.563,-4.375,-1.937,-0.015,0.541,-0.897
up,23,100,-4.687,-5.875,-2.188,-0.030,0.548,-0.901
up,23,120,-6.125,-11.688,-5.062,-0.038,0.555,-0.909
up,23,140,-4.312,-22.562,-8.813,-0.035,0.570,-0.937
up,23,160,-3.875,-29.625,-7.750,-0.065,0.619,-0.980
up,23,180,-7.812,-32.250,-3.688,-0.102,0.656,-1.004
up,23,200,-8.063,-41.750,-4.625,-0.112,0.677,-1.021
up,23,220,-10.625,-54.813,-4.812,-0.150,0.754,-1.094
up,23,240,-18.250,-61.063,-2.063,-0.269,0.864,-1.266
up,23,260,-12.375,-59.250,-5.437,-0.425,0.916,-1.457
up,23,280,8.000,-56.750,-18.312,-0.496,0.940,-1.578
up,23,300,24.750,-41.125,-22.250,-0.497,0.963,-1.638
up,23,320,31.375,-18.750,-16.250,-0.434,0.925,-1.602
up,23,340,48.438,-12.375,-19.937,-0.358,0.858,-1.495
up,23,360,53.750,-15.625,-21.125,-0.295,0.813,-1.369
up,23,380,51.438,-17.750,-22.812,-0.145,0.642,-1.233
up,23,400,48.688,-27.250,-24.562,-0.115,0.616,-1.098
up,23,420,28.062,-29.500,-24.875,-0.164,0.642,-1.103
up,23,440,21.875,-23.875,-31.875,-0.172,0.563,-1.216
up,23,460,39.063,-16.187,-35.438,-0.207,0.592,-1.188
up,23,480,32.563,5.375,-23.750,-0.182,0.640,-1.120
up,23,500,21.750,37.313,-2.313,-0.130,0.571,-1.034
up,23,520,20.000,63.938,14.125,-0.146,0.565,-0.907
up,23,540,41.438,80.313,12.813,-0.159,0.533,-0.818
up,23,560,67.813,69.563,-9.000,-0.128,0.516,-0.651
up,23,580,62.625,68.250,-23.812,-0.053,0.485,-0.548
up,23,600,68.188,73.375,-20.500,0.023,0.534,-0.526
up,23,620,87.500,79.438,-10.438,0.099,0.503,-0.389
up,23,640,88.188,74.375,9.750,0.232,0.437,-0.251
up,23,660,55.563,87.563,56.938,0.228,0.338,-0.265
up,23,680,29.562,116.063,99.250,-0.019,0.108,-0.515
up,23,700,43.438,123.500,74.750,-0.116,-0.146,-0.358
up,23,720,49.188,83.875,12.438,0.104,-0.235,-0.197
up,23,740,30.625,48.125,-3.563,0.280,-0.235,-0.317
up,23,760,17.500,32.063,9.875,0.202,-0.221,-0.479
up,23,780,4.750,13.125,-3.188,0.042,-0.185,-0.595
up,23,800,-3.250,-5.062,-35.750,-0.052,-0.112,-0.821
up,23,820,-5.937,-9.063,-51.500,-0.049,-0.001,-0.907
up,23,840,-11.313,-2.000,-49.563,0.023,0.075,-0.923
up,23,860,-15.688,6.812,-42.500,0.044,0.130,-0.957
up,23,880,-17.250,16.562,-30.437,0.029,0.167,-0.992
up,23,900,-16.312,21.562,-19.187,0.049,0.179,-1.007
up,23,920,-8.188,4.437,-11.938,0.102,0.196,-0.999
up,23,940,4.812,-5.125,0.250,0.075,0.181,-1.072
up,23,960,23.625,10.125,4.062,0.023,0.128,-1.045
up,23,980,33.500,17.562,-8.938,0.043,0.084,-0.873
up,23,1000,24.937,9.688,-26.750,0.126,0.091,-0.692
up,23,1020,-5.000,4.750,-30.125,0.162,0.141,-0.658
up,23,1040,-41.125,13.625,-10.125,0.101,0.142,-0.766
up,23,1060,-57.563,27.625,-0.625,0.065,0.114,-0.809
up,23,1080,-51.188,25.625,-16.250,0.045,0.152,-0.749
up,23,1100,-45.688,9.688,-33.375,0.042,0.194,-0.717
up,23,1120,-49.563,0.937,-31.125,0.066,0.196,-0.707
up,23,1140,-60.250,5.812,-14.000,0.060,0.184,-0.714
up,23,1160,-62.188,9.563,-8.063,0.066,0.169,-0.674
up,23,1180,-52.313,-13.688,-14.375,0.049,0.221,-0.621
up,23,1200,-53.625,-46.000,6.562,0.049,0.271,-0.673
up,23,1220,-58.313,-54.688,39.000,0.058,0.267,-0.721
up,23,1240,-47.875,-38.188,59.250,-0.014,0.322,-0.698
up,23,1260,-31.625,-25.562,58.000,-0.052,0.354,-0.624
up,23,1280,-19.750,-33.375,54.313,0.023,0.305,-0.563
up,23,1300,2.500,-43.813,52.688,0.047,0.289,-0.493
up,23,1320,21.687,-42.063,21.312,-0.052,0.382,-0.429
up,23,1340,47.188,-54.125,-33.500,-0.022,0.493,-0.544
up,23,1360,64.750,-74.000,-59.000,0.125,0.464,-0.634
up,23,1380,65.563,-84.688,-41.438,0.177,0.496,-0.627
up,23,1400,38.688,-86.250,-10.625,0.085,0.562,-0.740
up,23,1420,-4.250,-15.563,-5.812,0.063,0.558,-0.990
up,23,1440,-28.625,14.563,-2.875,0.135,0.479,-1.039
up,23,1460,-49.563,-0.062,31.750,0.109,0.409,-1.103
up,23,1480,-63.938,-10.063,37.125,-0.012,0.448,-1.263
up,23,1500,-69.000,-13.750,16.875,-0.060,0.405,-1.414
up,23,1520,-65.375,-5.937,4.875,-0.049,0.376,-1.494
up,23,1540,-62.313,-7.562,12.750,0.027,0.472,-1.472
up,23,1560,-85.188,12.000,39.563,-0.045,0.623,-1.485
up,23,1580,-95.188,29.250,47.563,-0.151,0.671,-1.485
up,23,1600,-87.125,15.625,39.250,-0.208,0.756,-1.491
up,23,1620,-77.688,21.625,19.812,-0.153,0.812,-1.554
up,23,1640,-50.375,26.437,4.812,-0.052,0.812,-1.506
up,23,1660,-20.687,8.250,-5.687,-0.026,0.839,-1.393
up,23,1680,-11.313,-5.625,-13.000,-0.037,0.834,-1.352
up,23,1700,5.062,-17.625,-12.125,-0.028,0.797,-1.335
up,23,1720,23.687,-20.125,-14.188,-0.047,0.771,-1.254
up,23,1740,31.187,-17.125,-13.375,-0.058,0.758,-1.108
up,23,1760,30.625,-16.625,-14.688,-0.065,0.716,-1.027
up,23,1780,26.250,-0.062,5.437,-0.050,0.666,-0.984
up,23,1800,30.250,2.750,3.438,-0.022,0.590,-0.919
up,23,1820,42.438,-3.438,5.250,-0.029,0.533,-0.875
up,23,1840,45.813,-14.188,0.687,-0.019,0.520,-0.833
up,23,1860,29.937,-3.125,3.313,-0.019,0.500,-0.792
up,23,1880,9.250,9.313,11.688,-0.012,0.489,-0.768
up,23,1900,-6.312,12.750,16.750,-0.044,0.482,-0.805
up,23,1920,-6.062,13.938,13.313,-0.065,0.457,-0.874
up,23,1940,2.125,12.500,3.938,-0.055,0.447,-0.890
up,23,1960,1.437,10.563,-2.875,-0.043,0.467,-0.880
up,23,1980,-7.562,9.875,-2.125,-0.053,0.486,-0.920
up,23,2000,-10.500,13.313,-3.438,-0.057,0.480,-0.963
up,24,1,0.062,0.937,2.500,-0.032,0.471,-0.935
up,24,20,0.312,-0.562,0.875,-0.040,0.466,-0.934
up,24,40,-2.938,-1.375,-0.500,-0.040,0.474,-0.939
up,24,60,-3.563,-3.250,0.062,-0.028,0.483,-0.961
up,24,80,-2.188,-2.875,0.562,-0.043,0.487,-0.983
up,24,100,0.187,-7.687,-3.875,-0.053,0.495,-0.986
up,24,120,-1.500,-19.187,-6.000,-0.024,0.523,-1.008
up,24,140,-4.500,-27.687,-0.312,-0.040,0.557,-1.088
up,24,160,-0.937,-30.187,-1.437,-0.090,0.553,-1.157
up,24,180,6.875,-42.188,-8.813,-0.099,0.561,-1.146
up,24,200,5.062,-65.563,-5.312,-0.162,0.646,-1.215
up,24,220,-1.312,-67.625,2.688,-0.275,0.685,-1.392
